# Gait Analysis Data - MPU6050 IMU
# Duration: 10 seconds
# Format: timestamp(s),ax(g),ay(g),az(g),gx(deg/s),gy(deg/s),gz(deg/s),temp(C)
# Note: Document sensor placement (ankle/wrist) separately
timestamp,ax,ay,az,gx,gy,gz,temp
0.001298,0.470000,-0.170000,-0.891000,-33.771000,19.496000,-33.450000,29.52
0.002717,0.479000,-0.114000,-0.885000,-30.626000,21.954000,-31.099000,29.47
0.003836,0.503000,-0.077000,-0.904000,-25.542000,22.489000,-26.748000,29.57
0.005223,0.479000,-0.114000,-0.904000,-21.099000,23.252000,-23.527000,29.42
0.006596,0.502000,-0.128000,-0.900000,-15.588000,21.221000,-20.931000,29.38
0.007885,0.504000,-0.133000,-0.870000,-14.015000,26.885000,-19.893000,29.47
0.008982,0.484000,-0.132000,-0.863000,-10.962000,24.473000,-18.672000,29.47
0.009886,0.490000,-0.186000,-0.858000,-9.069000,24.733000,-18.901000,29.42
0.010789,0.503000,-0.149000,-0.876000,-9.756000,27.603000,-18.656000,29.42
0.011691,0.502000,-0.229000,-0.864000,-11.542000,30.275000,-20.290000,29.47
0.012588,0.476000,-0.290000,-0.859000,-16.214000,35.313000,-25.038000,29.38
0.013485,0.458000,-0.216000,-0.913000,-17.527000,37.756000,-35.466000,29.42
0.014383,0.465000,-0.527000,-0.791000,-33.145000,51.176000,-39.221000,29.42
0.015392,0.595000,-0.306000,-0.824000,-35.389000,55.145000,-43.985000,29.42
0.016389,0.517000,-0.154000,-0.900000,-38.718000,69.924000,-43.832000,29.47
0.017234,0.522000,-0.121000,-0.927000,-40.962000,85.206000,-41.557000,29.38
0.018067,0.554000,-0.076000,-0.938000,-45.008000,102.763000,-34.061000,29.52
0.019057,0.495000,-0.003000,-0.943000,-43.115000,124.153000,-31.420000,29.52
0.020120,0.467000,-0.019000,-0.905000,-41.664000,156.702000,-27.725000,29.57
0.020941,0.359000,0.022000,-0.930000,-41.847000,191.359000,-31.221000,29.47
0.021758,0.399000,0.014000,-0.913000,-40.366000,224.382000,-35.237000,29.33
0.022619,0.417000,0.023000,-0.917000,-37.298000,259.496000,-38.748000,29.52
0.023387,0.455000,-0.083000,-0.928000,-28.718000,278.412000,-46.504000,29.38
0.024096,0.472000,-0.063000,-0.943000,-9.328000,304.885000,-61.527000,29.47
0.024797,0.418000,-0.127000,-0.713000,-19.878000,329.145000,-79.115000,29.42
0.025492,0.843000,-0.198000,-1.015000,-29.710000,342.031000,-94.366000,29.38
0.026180,0.984000,-0.520000,-1.084000,-35.191000,333.191000,-114.076000,29.38
0.026642,1.317000,-0.563000,-1.400000,-47.130000,349.771000,-129.298000,29.57
0.027097,1.739000,-0.600000,-1.788000,-65.466000,379.130000,-140.107000,29.42
0.027557,2.257000,-0.621000,-2.359000,-84.901000,392.153000,-156.321000,29.42
0.028019,2.189000,-0.625000,-1.945000,-117.237000,386.366000,-190.092000,29.47
0.028477,2.394000,-1.025000,-2.440000,-151.939000,336.519000,-187.145000,29.47
0.029210,0.881000,-1.041000,-2.903000,-155.542000,222.779000,-166.092000,29.52
0.030056,-0.080000,-1.893000,-4.000000,-60.977000,41.695000,-34.992000,29.52
0.030717,1.011000,-1.786000,-4.000000,-5.023000,-91.221000,3.084000,29.47
0.031398,-0.894000,-1.445000,-1.862000,-34.687000,-159.664000,-22.137000,29.57
0.032092,-0.793000,-1.392000,-1.026000,-71.893000,-167.695000,-38.458000,29.61
0.032748,-0.369000,-1.112000,-1.508000,-85.130000,-212.733000,-49.405000,29.42
0.033458,-0.197000,-1.052000,-1.640000,-64.962000,-222.870000,-35.893000,29.38
0.034136,-0.168000,-1.033000,-1.453000,-32.931000,-242.489000,-21.740000,29.38
0.034851,-0.092000,-1.060000,-1.230000,-14.229000,-252.092000,-9.878000,29.57
0.035534,0.027000,-0.993000,-0.993000,-3.008000,-259.771000,-2.198000,29.42
0.036167,0.190000,-0.869000,-0.875000,13.115000,-263.588000,8.015000,29.42
0.036789,0.337000,-0.763000,-0.832000,38.305000,-263.359000,25.069000,29.38
0.037412,0.461000,-0.703000,-0.750000,65.481000,-256.748000,44.321000,29.47
0.038032,0.554000,-0.745000,-0.739000,84.397000,-247.389000,62.458000,29.42
0.038639,0.653000,-0.688000,-0.834000,95.420000,-239.267000,76.076000,29.47
0.039213,0.753000,-0.546000,-1.009000,102.702000,-233.985000,85.405000,29.38
0.039768,0.876000,-0.386000,-1.145000,122.489000,-236.977000,91.573000,29.47
0.040336,0.991000,-0.250000,-1.243000,142.763000,-243.939000,95.740000,29.42
0.040902,1.064000,-0.181000,-1.287000,160.382000,-249.893000,96.718000,29.52
0.041514,1.096000,-0.118000,-1.329000,169.817000,-252.641000,94.229000,29.47
0.042086,1.172000,-0.068000,-1.342000,177.634000,-250.473000,89.924000,29.47
0.042649,1.285000,-0.022000,-1.297000,187.191000,-245.847000,90.931000,29.42
0.043211,1.447000,0.005000,-1.294000,205.038000,-251.771000,94.763000,29.42
0.043779,1.566000,0.131000,-1.198000,209.985000,-215.786000,103.557000,29.57
0.044344,1.838000,0.210000,-1.145000,218.550000,-200.901000,114.611000,29.47
0.044910,2.125000,0.339000,-1.063000,217.206000,-185.359000,124.473000,29.61
0.045471,2.335000,0.579000,-0.952000,210.947000,-160.015000,128.382000,29.52
0.046035,2.536000,0.905000,-0.971000,210.962000,-140.779000,129.176000,29.52
0.046594,2.677000,1.180000,-0.901000,211.939000,-127.863000,127.038000,29.47
0.047167,2.721000,1.340000,-0.806000,203.237000,-116.947000,122.962000,29.47
0.047728,2.823000,1.470000,-0.672000,185.206000,-116.122000,118.840000,29.42
0.048286,2.941000,1.631000,-0.346000,167.649000,-119.298000,111.038000,29.42
0.048808,2.896000,1.702000,0.121000,150.977000,-113.298000,94.000000,29.47
0.049544,2.853000,1.689000,0.488000,125.557000,-95.328000,67.786000,29.47
0.050148,2.830000,1.750000,0.675000,87.344000,-74.534000,34.122000,29.42
0.050659,2.936000,1.555000,0.760000,26.901000,-48.351000,0.702000,29.47
0.051166,2.815000,-0.221000,1.113000,-99.740000,-1.160000,0.947000,29.47
0.051709,2.899000,0.579000,1.103000,-294.382000,21.679000,-43.756000,29.47
0.052261,-0.833000,0.123000,-1.207000,-146.489000,87.160000,-14.000000,29.52
0.052791,0.150000,-0.316000,-2.680000,-109.481000,19.496000,48.809000,29.42
0.053309,-1.467000,-0.932000,-1.337000,-117.252000,26.855000,55.878000,29.47
0.053821,-0.461000,0.343000,-0.431000,-117.664000,35.450000,-7.863000,29.57
0.054341,0.647000,1.258000,-1.127000,-42.137000,105.099000,-11.115000,29.42
0.054850,0.826000,1.311000,-1.468000,10.489000,123.878000,-20.137000,29.52
0.055360,0.542000,1.541000,-2.167000,36.763000,110.626000,-50.504000,29.47
0.055866,0.487000,0.731000,-1.867000,61.573000,86.824000,-67.099000,29.47
0.056374,0.503000,-0.146000,-1.307000,82.809000,98.702000,-57.298000,29.42
0.056889,0.520000,-0.635000,-0.735000,105.603000,113.160000,-40.992000,29.42
0.057391,0.983000,-0.789000,-1.107000,96.580000,40.702000,-32.931000,29.38
0.057909,0.898000,-0.792000,-0.811000,80.702000,81.023000,-20.962000,29.47
0.058425,1.053000,-1.151000,-0.837000,51.496000,54.962000,-14.198000,29.52
0.059024,0.783000,-0.970000,-0.686000,28.168000,45.237000,-6.137000,29.47
0.059678,0.627000,-0.728000,-0.875000,1.786000,38.351000,-6.885000,29.47
0.060243,0.594000,-0.684000,-0.797000,-11.542000,7.298000,-10.412000,29.47
0.060769,0.436000,-0.681000,-0.674000,-24.718000,-1.221000,-14.076000,29.52
0.061253,0.253000,-0.458000,-0.668000,-37.267000,-3.099000,-20.992000,29.42
0.061735,0.214000,-0.345000,-0.697000,-55.771000,9.405000,-31.053000,29.47
0.062207,0.344000,-0.385000,-0.790000,-65.863000,22.870000,-34.443000,29.38
0.062685,0.281000,-0.226000,-0.730000,-70.443000,24.992000,-36.305000,29.42
0.063163,0.225000,-0.263000,-0.659000,-88.107000,23.450000,-42.519000,29.42
0.063641,0.290000,-0.478000,-0.639000,-106.718000,22.397000,-48.397000,29.47
0.064120,0.382000,-0.698000,-0.799000,-116.183000,32.031000,-52.565000,29.47
0.064604,0.553000,-0.498000,-0.948000,-119.481000,35.756000,-53.618000,29.61
0.065086,0.574000,-0.312000,-0.997000,-112.840000,28.412000,-51.069000,29.52
0.065565,0.523000,-0.352000,-0.872000,-104.748000,21.557000,-48.947000,29.47
0.066041,0.625000,-0.243000,-1.121000,-92.458000,17.771000,-45.802000,29.47
0.066516,0.508000,-0.209000,-0.901000,-80.672000,12.550000,-44.580000,29.42
0.066992,0.535000,-0.177000,-0.898000,-67.160000,12.198000,-45.863000,29.38
0.067464,0.833000,0.022000,-0.705000,-53.939000,45.038000,-31.130000,29.47
0.067946,0.237000,-0.067000,-0.760000,-39.664000,14.168000,-29.481000,29.38
0.068416,0.466000,-0.086000,-0.884000,-28.382000,7.435000,-26.748000,29.52
0.068882,0.518000,-0.120000,-0.905000,-22.611000,12.489000,-22.595000,29.42
0.069458,0.446000,-0.095000,-0.875000,-15.496000,15.740000,-19.527000,29.38
0.070174,0.460000,-0.156000,-0.854000,-12.122000,20.992000,-17.893000,29.47
0.070692,0.474000,-0.157000,-0.864000,-10.046000,25.069000,-18.168000,29.42
0.071158,0.487000,-0.149000,-0.855000,-8.519000,26.198000,-17.985000,29.52
0.071613,0.492000,-0.179000,-0.837000,-9.206000,26.198000,-18.198000,29.38
0.072088,0.464000,-0.187000,-0.830000,-11.588000,26.076000,-19.160000,29.38
0.072546,0.434000,-0.233000,-0.828000,-15.099000,28.321000,-19.710000,29.52
0.073038,0.471000,-0.217000,-0.846000,-17.053000,30.580000,-22.489000,29.52
0.073535,0.485000,-0.236000,-0.865000,-19.450000,34.198000,-25.954000,29.47
0.074004,0.500000,-0.243000,-0.863000,-20.611000,38.198000,-30.779000,29.47
0.074472,0.490000,-0.568000,-0.779000,-18.275000,39.985000,-39.481000,29.52
0.074938,0.526000,-0.097000,-0.969000,-31.420000,63.634000,-43.542000,29.52
0.075396,0.545000,-0.307000,-0.875000,-37.511000,72.168000,-42.519000,29.47
0.075854,0.507000,-0.149000,-0.885000,-39.573000,88.351000,-41.725000,29.47
0.076315,0.499000,-0.097000,-0.905000,-38.718000,102.763000,-40.260000,29.42
0.076786,0.535000,-0.003000,-0.884000,-38.046000,122.504000,-35.588000,29.42
0.077245,0.505000,0.063000,-0.906000,-34.733000,147.038000,-29.725000,29.38
0.077697,0.457000,0.036000,-0.863000,-28.061000,174.840000,-28.809000,29.47
0.078141,0.407000,0.054000,-0.856000,-26.458000,199.939000,-31.756000,29.52
0.078581,0.447000,0.032000,-0.865000,-26.992000,223.634000,-32.870000,29.42
0.079092,0.477000,0.015000,-0.865000,-25.679000,243.496000,-35.191000,29.47
0.079694,0.565000,-0.058000,-0.872000,-20.290000,263.115000,-42.168000,29.47
0.080231,0.474000,-0.151000,-0.781000,-24.595000,283.130000,-56.641000,29.38
0.080741,0.625000,-0.184000,-0.713000,-32.687000,303.542000,-73.130000,29.52
0.081208,0.813000,-0.150000,-0.854000,-42.733000,315.176000,-83.832000,29.52
0.081671,0.964000,-0.222000,-0.920000,-46.427000,327.618000,-93.084000,29.38
0.082127,1.291000,-0.459000,-1.193000,-32.748000,333.603000,-96.122000,29.47
0.082581,1.627000,-0.447000,-1.635000,17.710000,335.832000,-89.771000,29.42
0.083038,2.009000,-0.423000,-1.851000,31.893000,348.947000,-93.832000,29.42
0.083499,1.925000,-0.146000,-1.480000,13.420000,358.748000,-116.000000,29.47
0.083948,1.940000,-0.324000,-1.802000,-6.809000,331.069000,-129.344000,29.47
0.084399,1.755000,-0.280000,-2.221000,-6.885000,271.725000,-126.916000,29.52
0.084851,0.632000,-0.955000,-2.530000,9.176000,195.771000,-108.611000,29.38
0.085350,-0.199000,-2.767000,-2.964000,11.985000,65.832000,-32.137000,29.47
0.085821,1.459000,-2.393000,-3.800000,-81.481000,-68.763000,-13.130000,29.38
0.086276,-0.776000,-1.540000,-1.625000,-160.656000,-144.305000,-17.282000,29.42
0.086717,-0.521000,-1.001000,-1.292000,-177.908000,-157.695000,-27.710000,29.42
0.087159,-0.132000,-0.650000,-1.758000,-140.947000,-210.260000,-24.321000,29.47
0.087605,-0.145000,-0.564000,-1.545000,-74.519000,-241.573000,-12.992000,29.47
0.088051,-0.228000,-0.733000,-1.222000,-32.809000,-266.718000,-10.305000,29.52
0.088487,-0.189000,-0.850000,-0.889000,-25.481000,-267.542000,-15.664000,29.42
0.088922,-0.115000,-0.750000,-0.654000,-27.038000,-264.779000,-22.000000,29.38
0.089358,-0.085000,-0.559000,-0.514000,-3.786000,-259.511000,-18.656000,29.47
0.089786,0.174000,-0.505000,-0.518000,35.786000,-254.244000,-3.817000,29.42
0.090301,0.357000,-0.683000,-0.443000,65.908000,-252.687000,18.534000,29.52
0.090745,0.427000,-0.837000,-0.368000,75.221000,-244.824000,41.298000,29.42
0.091179,0.591000,-0.933000,-0.357000,72.794000,-226.137000,65.603000,29.47
0.091646,0.838000,-0.973000,-0.466000,67.099000,-204.473000,95.130000,29.47
0.092087,1.151000,-0.885000,-0.580000,74.321000,-186.962000,143.435000,29.52
0.092529,1.393000,-0.404000,-0.734000,100.061000,-179.053000,199.176000,29.42
0.092962,1.356000,-0.057000,-0.650000,126.015000,-169.939000,236.840000,29.47
0.093396,1.505000,0.235000,-0.699000,131.328000,-154.122000,253.511000,29.47
0.093855,1.822000,0.435000,-0.902000,107.328000,-140.427000,250.977000,29.42
0.094371,1.769000,0.713000,-1.139000,77.878000,-153.771000,219.603000,29.47
0.094861,2.119000,0.930000,-0.828000,47.450000,-147.344000,180.550000,29.47
0.095324,2.025000,1.057000,-0.637000,40.382000,-151.527000,122.198000,29.47
0.095783,2.352000,1.045000,-0.542000,60.901000,-155.603000,77.603000,29.42
0.096233,2.248000,0.961000,-0.356000,86.794000,-156.443000,40.214000,29.52
0.096682,2.188000,0.866000,-0.171000,99.878000,-143.481000,9.023000,29.47
0.097120,2.186000,0.854000,-0.017000,104.076000,-124.015000,-19.115000,29.47
0.097568,2.111000,0.965000,0.142000,108.137000,-93.267000,-44.489000,29.33
0.098003,2.081000,1.140000,0.282000,124.397000,-62.534000,-66.366000,29.52
0.098431,2.124000,1.300000,0.323000,148.473000,-37.527000,-87.969000,29.47
0.098867,2.143000,1.427000,0.302000,177.573000,-27.053000,-111.740000,29.47
0.099296,2.115000,1.512000,0.308000,200.473000,-21.802000,-136.779000,29.42
0.099729,1.927000,1.428000,0.466000,208.916000,-18.687000,-162.275000,29.42
0.100291,2.729000,1.529000,0.407000,143.298000,-43.115000,-249.939000,29.47
0.100850,2.028000,0.763000,0.331000,26.580000,-92.336000,-302.473000,29.47
0.101348,2.017000,-1.765000,0.961000,-34.366000,-42.198000,-210.641000,29.42
0.101880,2.671000,-2.357000,-0.557000,-148.901000,-66.000000,-101.511000,29.42
0.102336,0.537000,1.368000,-1.778000,-157.481000,-19.038000,-38.595000,29.47
0.102770,0.332000,2.087000,-2.582000,-2.046000,-161.038000,-58.260000,29.47
0.103207,-0.283000,-1.175000,0.109000,-43.191000,-106.443000,-29.618000,29.42
0.103638,0.221000,0.279000,-1.164000,-50.061000,-17.847000,-40.412000,29.52
0.104060,0.678000,0.323000,-1.028000,-6.580000,-60.672000,-28.931000,29.47
0.104481,0.637000,-0.144000,-1.017000,3.191000,4.824000,-12.901000,29.38
0.104927,0.332000,-0.142000,-1.002000,16.916000,-6.412000,-9.450000,29.42
0.105354,0.549000,-0.255000,-0.924000,11.344000,23.191000,-7.298000,29.42
0.105783,0.491000,-0.198000,-0.891000,11.084000,26.947000,-6.107000,29.47
0.106207,0.544000,-0.184000,-0.842000,12.015000,30.000000,-5.420000,29.47
0.106638,0.568000,-0.138000,-0.833000,14.168000,25.466000,-2.580000,29.42
0.107065,0.559000,-0.152000,-0.843000,16.168000,22.260000,-0.168000,29.42
0.107480,0.559000,-0.237000,-0.833000,16.275000,16.489000,0.046000,29.42
0.107906,0.536000,-0.276000,-0.822000,12.015000,10.733000,-1.954000,29.47
0.108332,0.542000,-0.261000,-0.827000,7.038000,6.427000,-3.603000,29.47
0.108750,0.530000,-0.242000,-0.839000,2.275000,1.313000,-4.763000,29.52
0.109174,0.534000,-0.221000,-0.846000,-0.382000,-0.412000,-5.557000,29.42
0.109604,0.513000,-0.184000,-0.849000,-2.275000,2.290000,-5.298000,29.47
0.110127,0.505000,-0.176000,-0.841000,-3.710000,7.038000,-4.244000,29.47
0.110733,0.508000,-0.160000,-0.855000,-3.511000,10.794000,-2.687000,29.52
0.111184,0.518000,-0.146000,-0.843000,-1.557000,11.863000,-0.885000,29.38
0.111633,0.520000,-0.173000,-0.838000,-0.855000,10.107000,0.290000,29.47
0.112060,0.533000,-0.201000,-0.829000,-1.863000,8.947000,0.076000,29.47
0.112474,0.534000,-0.209000,-0.830000,-2.656000,7.389000,0.153000,29.42
0.112887,0.530000,-0.213000,-0.824000,-2.550000,5.282000,-0.168000,29.42
0.113303,0.537000,-0.225000,-0.822000,-3.206000,2.992000,-0.733000,29.38
0.113725,0.542000,-0.210000,-0.832000,-3.832000,1.511000,-0.901000,29.47
0.114143,0.539000,-0.194000,-0.823000,-3.603000,0.550000,-0.565000,29.33
0.114564,0.529000,-0.179000,-0.833000,-3.863000,0.397000,0.153000,29.42
0.114997,0.517000,-0.192000,-0.832000,-3.649000,0.733000,0.763000,29.38
0.115428,0.512000,-0.183000,-0.829000,-3.069000,0.626000,1.466000,29.47
0.115850,0.518000,-0.175000,-0.840000,-2.321000,0.092000,2.168000,29.42
0.116271,0.516000,-0.166000,-0.828000,-1.588000,-0.855000,3.145000,29.42
0.116690,0.520000,-0.179000,-0.831000,-0.458000,-2.076000,4.229000,29.47
0.117115,0.528000,-0.185000,-0.833000,0.718000,-2.718000,5.588000,29.38
0.117537,0.527000,-0.175000,-0.835000,1.527000,-3.313000,6.534000,29.52
0.117957,0.527000,-0.185000,-0.836000,2.168000,-3.756000,7.664000,29.47
0.118386,0.518000,-0.182000,-0.844000,2.641000,-3.924000,8.656000,29.47
0.118827,0.531000,-0.181000,-0.851000,3.359000,-3.878000,9.832000,29.47
0.119261,0.531000,-0.189000,-0.853000,4.092000,-3.679000,11.038000,29.42
0.119746,0.526000,-0.191000,-0.845000,4.565000,-3.466000,11.603000,29.52
0.120284,0.518000,-0.211000,-0.850000,5.527000,-4.122000,12.122000,29.47
0.120894,0.516000,-0.197000,-0.860000,7.115000,-4.992000,12.382000,29.47
0.121346,0.522000,-0.208000,-0.865000,10.168000,-5.710000,13.053000,29.42
0.121801,0.489000,-0.221000,-0.836000,12.718000,-6.962000,13.267000,29.42
0.122235,0.484000,-0.233000,-0.865000,15.511000,-6.046000,13.221000,29.47
0.122670,0.509000,-0.219000,-0.857000,19.511000,-5.099000,14.214000,29.47
0.123119,0.480000,-0.255000,-0.849000,19.664000,-3.542000,13.771000,29.42
0.123555,0.457000,-0.270000,-0.835000,18.779000,-1.878000,12.351000,29.42
0.123988,0.470000,-0.252000,-0.854000,18.366000,-0.183000,11.160000,29.42
0.124418,0.475000,-0.233000,-0.868000,19.511000,0.198000,10.626000,29.47
0.124849,0.488000,-0.253000,-0.880000,20.702000,0.107000,10.672000,29.38
0.125410,0.482000,-0.278000,-0.853000,23.450000,-0.061000,10.458000,29.52
0.125880,0.492000,-0.334000,-0.824000,23.817000,0.794000,9.145000,29.42
0.126315,0.499000,-0.322000,-0.823000,22.992000,0.641000,7.802000,29.38
0.126758,0.487000,-0.321000,-0.820000,21.893000,-0.611000,6.214000,29.47
0.127245,0.477000,-0.329000,-0.816000,20.198000,-2.565000,4.931000,29.52
0.127697,0.480000,-0.331000,-0.806000,17.328000,-4.809000,3.359000,29.47
0.128107,0.485000,-0.328000,-0.791000,14.931000,-4.916000,2.901000,29.47
0.128521,0.516000,-0.309000,-0.868000,16.382000,-4.198000,2.870000,29.47
0.128934,0.488000,-0.247000,-0.879000,19.359000,-5.145000,3.725000,29.52
0.129351,0.471000,-0.273000,-0.858000,20.336000,-4.718000,4.656000,29.42
0.129760,0.470000,-0.282000,-0.843000,20.168000,-4.641000,5.053000,29.47
0.130192,0.500000,-0.269000,-0.890000,20.977000,-4.779000,4.580000,29.38
0.130612,0.495000,-0.220000,-0.910000,23.649000,-7.756000,3.557000,29.52
0.131026,0.437000,-0.151000,-0.910000,26.947000,-9.832000,-1.328000,29.52
0.131447,0.392000,-0.107000,-0.929000,30.702000,-13.603000,-10.198000,29.47
0.131864,0.386000,-0.088000,-0.948000,36.336000,-19.328000,-24.275000,29.47
0.132302,0.355000,0.095000,-0.953000,45.618000,-25.786000,-52.443000,29.42
0.132728,0.271000,0.569000,-1.129000,62.214000,-40.809000,-110.580000,29.52
0.133156,0.286000,0.850000,-1.344000,87.664000,-70.153000,-187.115000,29.38
0.133592,0.255000,1.397000,-1.612000,157.389000,-115.008000,-285.160000,29.47
0.134028,0.595000,0.480000,-1.115000,158.061000,-144.809000,-349.786000,29.52
0.134467,0.788000,0.610000,-0.850000,171.405000,-169.969000,-415.298000,29.38
0.134929,1.210000,-0.115000,-0.796000,189.145000,-186.702000,-447.695000,29.47
0.135491,1.284000,-0.663000,-0.477000,181.939000,-197.756000,-450.519000,29.38
0.136112,1.062000,-0.619000,-0.154000,156.550000,-190.107000,-453.969000,29.52
0.136613,0.943000,-0.349000,-0.033000,149.695000,-161.099000,-456.412000,29.52
0.137084,0.847000,-0.140000,-0.018000,152.412000,-142.000000,-464.748000,29.38
0.137544,0.942000,-0.182000,-0.109000,155.267000,-117.679000,-471.954000,29.47
0.138003,0.963000,-0.150000,-0.191000,150.290000,-95.740000,-480.427000,29.38
0.138451,1.022000,-0.183000,-0.418000,143.954000,-66.534000,-488.000000,29.42
0.138898,1.230000,-0.287000,-0.889000,152.992000,-39.481000,-483.740000,29.42
0.139349,1.430000,-0.132000,-1.131000,177.435000,-42.214000,-461.771000,29.38
0.139802,1.298000,-0.271000,-0.931000,202.076000,-62.489000,-430.351000,29.47
0.140303,1.081000,-0.547000,-0.623000,209.679000,-101.634000,-400.061000,29.52
0.140793,0.752000,-0.650000,-0.361000,175.863000,-79.420000,-372.458000,29.42
0.141260,0.606000,-0.585000,-0.385000,153.557000,-78.565000,-345.878000,29.47
0.141721,0.555000,-0.392000,-0.563000,159.985000,-69.939000,-316.061000,29.47
0.142182,0.584000,-0.316000,-0.709000,173.573000,-63.573000,-286.046000,29.42
0.142643,0.479000,-0.381000,-0.686000,169.496000,-52.107000,-262.443000,29.42
0.143094,0.369000,-0.382000,-0.684000,152.260000,-39.634000,-243.405000,29.38
0.143587,0.290000,-0.256000,-0.760000,136.412000,-32.565000,-224.870000,29.47
0.144062,0.207000,-0.105000,-0.808000,131.191000,-30.260000,-204.901000,29.33
0.144531,0.138000,-0.059000,-0.807000,129.771000,-29.786000,-185.252000,29.42
0.144979,0.077000,-0.103000,-0.792000,123.069000,-31.221000,-166.687000,29.38
0.145413,1.102000,-0.029000,-1.662000,133.450000,-33.511000,-115.664000,29.47
0.145881,0.795000,-0.917000,-1.166000,89.985000,-67.985000,-76.351000,29.52
0.146442,0.902000,-1.684000,-0.234000,44.473000,-61.878000,9.710000,29.42
0.146909,0.508000,-1.424000,0.226000,46.046000,-13.771000,21.023000,29.47
0.147353,0.661000,-0.530000,-1.396000,8.840000,-28.580000,9.237000,29.38
0.147795,0.200000,-0.115000,-1.213000,2.947000,-25.725000,5.252000,29.47
0.148251,0.098000,-0.300000,-0.626000,-11.160000,-22.687000,-1.359000,29.42
0.148693,0.428000,-0.542000,-0.732000,-33.481000,0.427000,-10.015000,29.42
0.149140,0.459000,-0.249000,-0.816000,-51.725000,17.344000,-15.817000,29.47
0.149585,0.545000,-0.091000,-0.948000,-43.786000,20.656000,-14.947000,29.47
0.150083,0.565000,-0.112000,-0.900000,-24.672000,-2.687000,-11.450000,29.42
0.150563,0.495000,-0.251000,-0.839000,-23.374000,16.992000,-10.198000,29.42
0.151015,0.384000,-0.066000,-0.910000,-13.389000,12.275000,-8.916000,29.47
0.151454,0.399000,0.019000,-0.942000,-3.252000,13.710000,-6.443000,29.47
0.151884,0.471000,-0.092000,-0.927000,7.634000,6.092000,-2.412000,29.52
0.152349,0.470000,-0.164000,-0.897000,12.947000,5.450000,0.489000,29.42
0.152807,0.492000,-0.164000,-0.885000,15.985000,9.389000,3.420000,29.38
0.153250,0.487000,-0.145000,-0.901000,18.962000,11.679000,6.046000,29.38
0.153677,0.478000,-0.243000,-0.873000,19.099000,13.695000,7.145000,29.42
0.154100,0.469000,-0.273000,-0.858000,16.870000,12.718000,6.137000,29.52
0.154517,0.457000,-0.250000,-0.859000,14.000000,11.038000,4.550000,29.38
0.154951,0.472000,-0.254000,-0.846000,10.885000,10.168000,3.084000,29.47
0.155360,0.489000,-0.240000,-0.861000,8.809000,8.260000,2.748000,29.42
0.155839,0.499000,-0.229000,-0.862000,8.046000,7.084000,3.160000,29.42
0.156371,0.503000,-0.209000,-0.873000,9.008000,5.710000,4.397000,29.47
0.156797,0.481000,-0.204000,-0.878000,9.908000,5.588000,5.603000,29.47
0.157211,0.462000,-0.221000,-0.874000,10.733000,6.382000,6.000000,29.47
0.157633,0.461000,-0.236000,-0.874000,10.412000,6.656000,5.969000,29.42
0.158060,0.462000,-0.237000,-0.865000,9.511000,7.832000,5.771000,29.52
0.158475,0.454000,-0.231000,-0.857000,9.160000,8.473000,5.771000,29.38
0.158882,0.456000,-0.234000,-0.864000,8.656000,9.008000,5.435000,29.38
0.159289,0.468000,-0.243000,-0.858000,7.954000,9.878000,4.962000,29.42
0.159706,0.473000,-0.226000,-0.868000,8.046000,9.939000,5.282000,29.52
0.160176,0.476000,-0.236000,-0.857000,8.305000,9.313000,5.389000,29.38
0.160714,0.474000,-0.249000,-0.844000,8.000000,8.244000,5.023000,29.47
0.161144,0.470000,-0.247000,-0.833000,7.389000,8.122000,5.038000,29.52
0.161555,0.467000,-0.252000,-0.834000,7.237000,8.198000,5.099000,29.42
0.161968,0.466000,-0.236000,-0.844000,7.557000,7.924000,5.176000,29.47
0.162374,0.472000,-0.241000,-0.851000,7.756000,6.870000,5.160000,29.47
0.162784,0.474000,-0.238000,-0.846000,8.031000,6.229000,5.695000,29.52
0.163192,0.478000,-0.237000,-0.848000,9.237000,5.969000,6.244000,29.33
0.163610,0.473000,-0.247000,-0.841000,10.275000,5.832000,6.992000,29.52
0.164019,0.470000,-0.245000,-0.845000,11.267000,5.389000,7.313000,29.38
0.164437,0.477000,-0.237000,-0.850000,13.084000,5.969000,8.153000,29.47
0.164854,0.475000,-0.236000,-0.850000,15.069000,5.618000,9.282000,29.42
0.165379,0.464000,-0.253000,-0.841000,15.939000,5.710000,9.511000,29.38
0.165787,0.453000,-0.257000,-0.834000,15.985000,6.046000,9.679000,29.38
0.166208,0.468000,-0.267000,-0.836000,16.229000,6.107000,9.450000,29.47
0.166630,0.460000,-0.274000,-0.824000,15.481000,6.214000,9.176000,29.42
0.167052,0.451000,-0.304000,-0.799000,12.779000,6.321000,7.420000,29.42
0.167493,0.466000,-0.330000,-0.807000,9.481000,4.855000,5.573000,29.47
0.167930,0.473000,-0.324000,-0.813000,6.565000,5.481000,4.092000,29.47
0.168349,0.476000,-0.305000,-0.817000,5.084000,5.130000,3.115000,29.42
0.168760,0.477000,-0.310000,-0.814000,3.817000,4.870000,2.824000,29.33
0.169198,0.469000,-0.308000,-0.818000,3.099000,5.344000,2.412000,29.38
0.169609,0.476000,-0.299000,-0.831000,2.412000,5.832000,2.137000,29.47
0.170038,0.474000,-0.292000,-0.838000,3.053000,6.809000,2.427000,29.42
0.170454,0.472000,-0.294000,-0.828000,3.038000,7.435000,2.183000,29.42
0.170864,0.476000,-0.304000,-0.837000,3.008000,7.420000,2.107000,29.38
0.171275,0.484000,-0.305000,-0.825000,2.718000,7.221000,2.031000,29.47
0.171689,0.481000,-0.299000,-0.822000,2.840000,7.634000,1.985000,29.47
0.172100,0.482000,-0.303000,-0.821000,2.962000,7.221000,2.137000,29.42
0.172506,0.473000,-0.301000,-0.832000,2.794000,7.466000,2.244000,29.42
0.172927,0.474000,-0.298000,-0.834000,3.267000,7.740000,2.458000,29.47
0.173339,0.466000,-0.298000,-0.831000,3.405000,8.168000,2.565000,29.47
0.173750,0.477000,-0.292000,-0.819000,3.695000,8.733000,3.053000,29.52
0.174159,0.487000,-0.301000,-0.843000,4.595000,8.916000,3.328000,29.47
0.174577,0.469000,-0.327000,-0.827000,4.580000,9.374000,2.763000,29.47
0.175012,0.479000,-0.349000,-0.800000,2.580000,8.153000,1.084000,29.47
0.175540,0.492000,-0.336000,-0.802000,-0.137000,8.122000,-0.397000,29.42
0.176139,0.504000,-0.320000,-0.823000,-1.527000,7.053000,-1.603000,29.42
0.176588,0.506000,-0.314000,-0.835000,-1.160000,6.321000,-2.351000,29.47
0.177062,0.516000,-0.334000,-0.841000,-0.977000,7.023000,-3.130000,29.47
0.177576,0.534000,-0.345000,-0.870000,2.275000,8.595000,-3.511000,29.42
0.178003,0.539000,-0.323000,-0.845000,7.069000,5.176000,-2.137000,29.42
0.178429,0.510000,-0.357000,-0.828000,9.221000,2.489000,-1.740000,29.38
0.178850,0.501000,-0.361000,-0.842000,10.473000,-0.015000,-1.771000,29.38
0.179275,0.497000,-0.368000,-0.843000,10.260000,-0.931000,-1.450000,29.42
0.179696,0.512000,-0.344000,-0.881000,11.466000,-1.679000,-0.137000,29.52
0.180126,0.501000,-0.316000,-0.864000,14.000000,-2.687000,1.466000,29.47
0.180548,0.476000,-0.330000,-0.863000,16.336000,-5.069000,2.595000,29.38
0.180968,0.473000,-0.328000,-0.883000,19.573000,-7.282000,4.031000,29.42
0.181403,0.433000,-0.278000,-0.853000,18.076000,-10.198000,2.687000,29.52
0.181835,0.360000,-0.271000,-0.840000,17.313000,-10.519000,-1.664000,29.42
0.182273,0.314000,-0.215000,-0.825000,16.748000,-11.832000,-13.618000,29.57
0.182703,0.273000,-0.169000,-0.874000,21.160000,-14.870000,-31.664000,29.47
0.183130,0.256000,-0.098000,-0.892000,27.145000,-19.115000,-56.275000,29.42
0.183569,0.039000,0.750000,-1.344000,108.733000,-25.740000,-118.443000,29.47
0.184008,0.140000,0.210000,-1.256000,91.115000,-51.649000,-150.397000,29.47
0.184450,0.170000,-0.009000,-1.046000,128.382000,-67.802000,-188.427000,29.47
0.184889,0.365000,-0.385000,-0.890000,127.847000,-74.412000,-212.916000,29.42
0.185365,0.421000,-0.528000,-0.722000,118.779000,-79.466000,-227.145000,29.42
0.185837,0.390000,-0.700000,-0.502000,85.206000,-78.229000,-231.130000,29.57
0.186285,0.437000,-0.482000,-0.616000,54.733000,-80.824000,-242.794000,29.47
0.186722,0.639000,-0.282000,-1.066000,24.641000,-92.275000,-249.832000,29.42
0.187183,0.596000,-0.419000,-0.826000,33.053000,-89.695000,-235.679000,29.52
0.187624,0.476000,-0.551000,-0.595000,32.382000,-84.046000,-222.565000,29.47
0.188065,0.401000,-0.590000,-0.477000,22.061000,-69.435000,-204.504000,29.38
0.188505,0.455000,-0.565000,-0.643000,14.336000,-44.321000,-184.733000,29.42
0.188938,0.529000,-0.537000,-0.860000,16.748000,-32.824000,-157.053000,29.52
0.189378,0.504000,-0.510000,-0.946000,21.954000,-30.565000,-130.382000,29.57
0.189817,0.422000,-0.400000,-0.900000,23.802000,-31.511000,-109.008000,29.38
0.190261,0.366000,-0.335000,-0.852000,21.481000,-33.267000,-95.878000,29.42
0.190694,0.339000,-0.258000,-0.843000,18.137000,-28.550000,-86.641000,29.52
0.191123,0.381000,-0.234000,-0.896000,19.893000,-26.718000,-77.863000,29.42
0.191563,0.398000,-0.198000,-0.913000,25.878000,-27.237000,-68.397000,29.47
0.191986,0.398000,-0.197000,-0.892000,31.298000,-30.550000,-59.450000,29.47
0.192416,0.365000,-0.173000,-0.795000,31.237000,-31.084000,-52.137000,29.42
0.192863,0.337000,-0.169000,-0.746000,25.649000,-27.389000,-47.817000,29.38
0.193318,0.319000,-0.155000,-0.749000,17.435000,-25.099000,-46.733000,29.38
0.193772,0.324000,-0.143000,-0.794000,12.382000,-22.489000,-45.924000,29.47
0.194226,0.300000,-0.113000,-0.829000,14.580000,-21.756000,-43.328000,29.52
0.194659,0.296000,-0.134000,-0.865000,21.939000,-21.573000,-37.710000,29.52
0.195105,0.256000,-0.172000,-0.832000,26.977000,-22.290000,-29.496000,29.47
0.195641,0.156000,-0.186000,-0.708000,28.672000,-21.176000,-21.847000,29.47
0.196234,0.010000,-0.175000,-0.597000,25.328000,-15.084000,-16.153000,29.42
0.196676,1.177000,0.119000,-0.508000,39.740000,33.206000,6.809000,29.42
0.197132,1.631000,0.556000,0.187000,-29.786000,55.145000,-19.649000,29.47
0.197587,0.146000,1.948000,-0.454000,-133.802000,-6.382000,-82.229000,29.47
0.198035,2.855000,-0.023000,-3.967000,-57.634000,71.618000,-13.420000,29.42
0.198466,-0.165000,0.049000,0.154000,43.252000,-76.809000,17.542000,29.52
0.198913,0.155000,-0.794000,-0.933000,-1.725000,45.282000,1.679000,29.47
0.199360,0.293000,-0.313000,-0.969000,6.031000,-31.603000,-4.137000,29.38
0.199814,0.491000,-0.389000,-0.808000,-13.954000,16.550000,-11.679000,29.52
0.200283,0.567000,-0.153000,-0.957000,0.916000,0.595000,-5.954000,29.52
0.200800,0.551000,-0.073000,-0.980000,2.290000,12.305000,-3.863000,29.47
0.201275,0.509000,-0.219000,-0.818000,6.244000,13.115000,-0.473000,29.47
0.201743,0.490000,-0.211000,-0.898000,6.336000,14.458000,-1.573000,29.52
0.202241,0.473000,-0.194000,-0.856000,6.718000,15.160000,-2.107000,29.42
0.202870,0.531000,-0.156000,-0.863000,7.206000,15.511000,-0.275000,29.57
0.203312,0.480000,-0.167000,-0.870000,8.427000,8.977000,1.435000,29.47
0.203748,0.463000,-0.161000,-0.877000,8.168000,5.573000,2.275000,29.47
0.204166,0.477000,-0.186000,-0.866000,7.191000,2.626000,2.947000,29.52
0.204597,0.499000,-0.215000,-0.865000,6.244000,3.664000,3.130000,29.52
0.205038,0.509000,-0.215000,-0.851000,5.099000,4.122000,3.191000,29.47
0.205525,0.499000,-0.219000,-0.852000,4.168000,2.580000,2.962000,29.47
0.206104,0.474000,-0.219000,-0.848000,2.718000,1.252000,2.153000,29.42
0.206611,0.475000,-0.231000,-0.863000,0.137000,0.809000,0.947000,29.52
0.207044,0.483000,-0.236000,-0.852000,-1.893000,0.718000,-0.382000,29.47
0.207474,0.474000,-0.219000,-0.849000,-3.511000,-0.122000,-1.115000,29.57
0.207909,0.470000,-0.207000,-0.856000,-3.420000,-1.618000,-1.130000,29.52
0.208360,0.483000,-0.202000,-0.854000,-2.824000,-2.305000,-0.595000,29.42
0.208814,0.463000,-0.202000,-0.859000,-1.908000,-1.969000,-0.015000,29.47
0.209244,0.464000,-0.207000,-0.856000,-2.290000,-0.504000,0.137000,29.38
0.209692,0.469000,-0.214000,-0.863000,-2.779000,0.794000,-0.229000,29.38
0.210301,0.464000,-0.225000,-0.853000,-3.145000,2.244000,-0.534000,29.42
0.210784,0.468000,-0.242000,-0.848000,-3.878000,3.405000,-1.282000,29.52
0.211231,0.471000,-0.236000,-0.835000,-5.237000,3.511000,-2.107000,29.47
0.211689,0.475000,-0.241000,-0.834000,-6.473000,3.176000,-3.145000,29.47
0.212150,0.468000,-0.226000,-0.837000,-7.802000,2.534000,-4.153000,29.52
0.212586,0.464000,-0.218000,-0.851000,-8.519000,2.000000,-4.611000,29.47
0.213025,0.476000,-0.216000,-0.857000,-8.656000,2.153000,-5.069000,29.47
0.213469,0.472000,-0.198000,-0.856000,-8.382000,1.863000,-4.733000,29.47
0.213910,0.472000,-0.193000,-0.856000,-7.710000,2.366000,-4.443000,29.52
0.214349,0.469000,-0.190000,-0.846000,-6.977000,2.672000,-4.397000,29.52
0.214803,0.467000,-0.202000,-0.847000,-6.351000,2.855000,-4.183000,29.47
0.215250,0.473000,-0.194000,-0.855000,-6.382000,3.298000,-4.137000,29.47
0.215783,0.476000,-0.196000,-0.863000,-6.092000,3.496000,-3.847000,29.52
0.216349,0.471000,-0.222000,-0.877000,-7.206000,4.137000,-4.382000,29.52
0.216825,0.477000,-0.229000,-0.860000,-8.885000,4.321000,-5.313000,29.47
0.217282,0.480000,-0.188000,-0.842000,-9.878000,3.695000,-5.664000,29.47
0.217742,0.480000,-0.167000,-0.863000,-8.702000,2.809000,-4.962000,29.42
0.218258,0.480000,-0.208000,-0.850000,-7.954000,1.618000,-4.916000,29.52
0.218803,0.467000,-0.195000,-0.863000,-8.489000,1.847000,-4.855000,29.47
0.219313,0.476000,-0.179000,-0.872000,-8.214000,2.382000,-4.443000,29.47
0.219825,0.473000,-0.176000,-0.870000,-7.710000,2.840000,-3.786000,29.42
0.220356,0.474000,-0.171000,-0.862000,-7.603000,3.099000,-3.634000,29.42
0.220856,0.469000,-0.177000,-0.854000,-7.817000,3.359000,-3.588000,29.42
0.221325,0.463000,-0.182000,-0.845000,-8.229000,3.664000,-3.939000,29.47
0.221769,0.466000,-0.183000,-0.848000,-8.611000,4.290000,-4.397000,29.47
0.222219,0.469000,-0.168000,-0.854000,-8.901000,4.565000,-4.656000,29.52
0.222660,0.470000,-0.160000,-0.857000,-8.427000,4.748000,-4.458000,29.47
0.223102,0.456000,-0.165000,-0.857000,-7.863000,4.611000,-4.595000,29.47
0.223540,0.463000,-0.162000,-0.852000,-7.603000,4.916000,-4.840000,29.47
0.223981,0.461000,-0.168000,-0.864000,-6.977000,5.252000,-4.809000,29.42
0.224416,0.463000,-0.162000,-0.854000,-6.885000,6.107000,-4.947000,29.33
0.224830,0.474000,-0.162000,-0.862000,-6.366000,6.137000,-4.611000,29.47
0.225262,0.474000,-0.151000,-0.862000,-5.573000,5.878000,-4.244000,29.47
0.225689,0.473000,-0.155000,-0.862000,-5.176000,5.679000,-3.802000,29.42
0.226108,0.490000,-0.167000,-0.863000,-4.947000,4.962000,-3.359000,29.52
0.226546,0.486000,-0.163000,-0.848000,-4.794000,4.198000,-3.191000,29.38
0.226992,0.479000,-0.166000,-0.853000,-4.534000,3.740000,-3.221000,29.47
0.227442,0.474000,-0.170000,-0.854000,-4.382000,3.466000,-3.466000,29.42
0.227869,0.476000,-0.168000,-0.854000,-4.382000,3.649000,-3.878000,29.42
0.228279,0.476000,-0.156000,-0.861000,-4.229000,4.000000,-3.618000,29.47
0.228700,0.476000,-0.148000,-0.866000,-3.466000,4.275000,-3.160000,29.38
0.229114,0.470000,-0.149000,-0.853000,-2.382000,4.611000,-2.870000,29.42
0.229537,0.476000,-0.146000,-0.868000,-1.695000,5.359000,-2.580000,29.42
0.229965,0.478000,-0.156000,-0.874000,-1.344000,5.893000,-2.031000,29.38
0.230500,0.474000,-0.169000,-0.853000,-1.099000,6.107000,-2.122000,29.57
0.231072,0.480000,-0.158000,-0.864000,-0.870000,5.893000,-1.802000,29.47
0.231533,0.479000,-0.155000,-0.861000,-0.489000,6.214000,-1.603000,29.42
0.231954,0.490000,-0.163000,-0.861000,-0.183000,6.031000,-1.328000,29.47
0.232367,0.498000,-0.158000,-0.857000,0.107000,5.481000,-1.298000,29.47
0.232778,0.495000,-0.168000,-0.855000,0.489000,4.611000,-0.962000,29.57
0.233189,0.500000,-0.156000,-0.863000,0.718000,3.679000,-0.366000,29.52
0.233601,0.506000,-0.139000,-0.864000,1.603000,3.237000,0.992000,29.42
0.234018,0.510000,-0.110000,-0.866000,4.031000,2.305000,2.916000,29.38
0.234426,0.461000,-0.159000,-0.859000,7.420000,2.229000,4.092000,29.38
0.234834,0.460000,-0.181000,-0.855000,8.901000,3.954000,3.908000,29.52
0.235335,0.464000,-0.187000,-0.852000,8.901000,4.947000,3.282000,29.42
0.235915,0.467000,-0.185000,-0.843000,7.099000,6.122000,2.595000,29.57
0.236346,0.473000,-0.175000,-0.849000,3.527000,6.015000,1.359000,29.47
0.236755,0.473000,-0.202000,-0.846000,0.443000,5.130000,0.168000,29.52
0.237170,0.482000,-0.193000,-0.854000,-1.557000,4.718000,-1.130000,29.42
0.237593,0.486000,-0.173000,-0.860000,-2.061000,4.305000,-1.389000,29.47
0.238014,0.492000,-0.172000,-0.857000,-1.710000,3.496000,-1.313000,29.47
0.238444,0.487000,-0.168000,-0.858000,-1.221000,3.481000,-0.977000,29.52
0.238861,0.490000,-0.163000,-0.860000,-0.733000,3.985000,-0.366000,29.47
0.239283,0.490000,-0.170000,-0.853000,-0.198000,3.985000,-0.076000,29.47
0.239716,0.479000,-0.166000,-0.852000,0.595000,4.321000,0.198000,29.47
0.240213,0.476000,-0.179000,-0.851000,0.122000,4.336000,0.122000,29.42
0.240733,0.484000,-0.182000,-0.853000,-0.458000,4.748000,-0.305000,29.52
0.241195,0.482000,-0.172000,-0.856000,-0.244000,4.687000,-0.412000,29.47
0.241683,0.471000,-0.176000,-0.850000,-0.565000,4.656000,-0.733000,29.38
0.242146,0.487000,-0.183000,-0.847000,-0.916000,4.473000,-1.176000,29.42
0.242582,0.474000,-0.176000,-0.844000,-1.893000,4.489000,-1.450000,29.52
0.243016,0.450000,-0.190000,-0.843000,-4.840000,4.748000,-3.237000,29.38
0.243435,0.467000,-0.224000,-0.854000,-7.847000,4.458000,-5.527000,29.47
0.243918,0.480000,-0.208000,-0.853000,-10.641000,4.565000,-7.420000,29.42
0.244360,0.483000,-0.181000,-0.857000,-11.847000,5.466000,-8.290000,29.52
0.244823,0.499000,-0.182000,-0.863000,-11.634000,4.794000,-8.672000,29.47
0.245267,0.498000,-0.161000,-0.852000,-10.718000,4.718000,-8.336000,29.38
0.245718,0.492000,-0.171000,-0.858000,-10.702000,4.595000,-8.336000,29.42
0.246162,0.491000,-0.174000,-0.850000,-10.382000,4.733000,-8.489000,29.42
0.246602,0.485000,-0.158000,-0.851000,-10.626000,5.237000,-8.702000,29.52
0.247034,0.496000,-0.139000,-0.863000,-9.908000,5.649000,-8.198000,29.38
0.247451,0.498000,-0.127000,-0.856000,-9.328000,6.076000,-7.481000,29.47
0.247867,0.493000,-0.146000,-0.848000,-8.260000,6.656000,-6.611000,29.61
0.248280,0.500000,-0.161000,-0.863000,-8.885000,5.710000,-6.168000,29.47
0.248699,0.510000,-0.140000,-0.860000,-8.427000,4.779000,-5.450000,29.57
0.249114,0.506000,-0.139000,-0.856000,-7.893000,3.573000,-4.473000,29.47
0.249530,0.503000,-0.143000,-0.849000,-6.977000,2.443000,-3.817000,29.42
0.250077,0.499000,-0.148000,-0.841000,-5.466000,1.969000,-3.389000,29.42
0.250693,0.489000,-0.144000,-0.844000,-4.000000,2.275000,-2.916000,29.38
0.251165,0.486000,-0.158000,-0.848000,-4.260000,2.580000,-3.267000,29.47
0.251675,0.502000,-0.163000,-0.847000,-5.053000,1.908000,-3.710000,29.42
0.252151,0.497000,-0.145000,-0.854000,-5.588000,1.191000,-3.847000,29.42
0.252664,0.507000,-0.134000,-0.853000,-5.206000,1.038000,-3.405000,29.47
0.253103,0.496000,-0.128000,-0.846000,-4.366000,0.214000,-2.641000,29.38
0.253517,0.482000,-0.142000,-0.867000,-3.695000,0.443000,-2.061000,29.42
0.253934,0.495000,-0.139000,-0.864000,-2.977000,0.702000,-2.458000,29.42
0.254345,0.469000,-0.151000,-0.854000,-3.618000,1.618000,-2.718000,29.47
0.254757,0.474000,-0.181000,-0.853000,-5.115000,1.450000,-3.618000,29.38
0.255186,0.497000,-0.153000,-0.857000,-6.122000,1.603000,-4.107000,29.42
0.255624,0.493000,-0.136000,-0.860000,-5.771000,2.733000,-3.634000,29.52
0.256031,0.500000,-0.134000,-0.861000,-4.931000,3.038000,-3.176000,29.33
0.256445,0.498000,-0.127000,-0.863000,-4.076000,3.115000,-2.565000,29.47
0.256867,0.477000,-0.145000,-0.852000,-4.427000,2.931000,-2.611000,29.47
0.257281,0.472000,-0.177000,-0.853000,-6.870000,2.779000,-4.489000,29.42
0.257691,0.489000,-0.163000,-0.854000,-9.008000,2.366000,-5.679000,29.47
0.258111,0.488000,-0.151000,-0.856000,-10.382000,2.031000,-6.366000,29.47
0.258529,0.479000,-0.161000,-0.863000,-12.046000,2.366000,-7.588000,29.38
0.258947,0.506000,-0.142000,-0.860000,-13.618000,3.481000,-8.244000,29.52
0.259364,0.516000,-0.129000,-0.864000,-13.740000,2.977000,-7.679000,29.52
0.259776,0.526000,-0.119000,-0.872000,-13.481000,2.321000,-6.885000,29.38
0.260215,0.486000,-0.133000,-0.850000,-12.519000,1.588000,-6.366000,29.38
0.260667,0.479000,-0.133000,-0.857000,-13.664000,2.031000,-7.038000,29.52
0.261102,0.500000,-0.143000,-0.854000,-14.534000,1.771000,-7.405000,29.42
0.261625,0.531000,-0.089000,-0.874000,-13.130000,2.504000,-6.931000,29.47
0.262220,0.566000,-0.083000,-0.895000,-9.328000,2.565000,-4.580000,29.38
0.262676,0.572000,-0.058000,-0.893000,-2.947000,-0.748000,-0.580000,29.42
0.263150,0.557000,-0.085000,-0.869000,1.802000,-6.198000,2.947000,29.42
0.263634,0.520000,-0.137000,-0.857000,2.092000,-9.756000,3.771000,29.42
0.264097,0.517000,-0.208000,-0.859000,-0.183000,-9.969000,2.855000,29.47
0.264544,0.507000,-0.207000,-0.852000,-0.595000,-7.634000,2.611000,29.38
0.265013,0.500000,-0.236000,-0.866000,1.252000,-3.511000,3.130000,29.42
0.265465,0.446000,-0.255000,-0.868000,2.183000,1.359000,2.870000,29.42
0.265886,0.333000,-0.248000,-0.928000,2.962000,12.824000,-2.000000,29.38
0.266306,0.385000,-0.338000,-1.084000,-2.824000,31.939000,-11.176000,29.57
0.266728,0.230000,-0.338000,-1.080000,-8.687000,55.939000,-26.122000,29.42
0.267143,0.358000,-0.281000,-1.297000,-1.802000,75.573000,-47.496000,29.38
0.267561,0.507000,-0.801000,-1.338000,-20.366000,97.527000,-53.985000,29.47
0.267981,0.540000,-0.911000,-1.635000,-40.183000,97.405000,-55.954000,29.47
0.268408,-0.215000,-1.353000,-1.681000,-41.466000,93.802000,-19.710000,29.42
0.268849,-0.039000,-1.650000,-1.480000,-13.573000,99.725000,38.824000,29.42
0.269276,-0.323000,-1.649000,-1.330000,18.168000,90.763000,77.740000,29.38
0.269738,-0.739000,-1.332000,-1.242000,15.450000,77.481000,100.687000,29.47
0.270169,-0.839000,-0.816000,-1.211000,19.573000,65.191000,95.863000,29.52
0.270585,-0.941000,-0.510000,-1.354000,27.099000,45.023000,76.107000,29.42
0.275754,-0.925000,-0.367000,-1.378000,29.252000,24.061000,46.412000,29.42
0.285742,-0.856000,-0.323000,-1.426000,27.282000,0.092000,16.198000,29.47
0.295746,-0.690000,-0.295000,-1.476000,31.344000,-23.450000,-6.260000,29.47
0.305751,-0.517000,-0.381000,-1.476000,40.137000,-48.260000,-16.290000,29.42
0.315785,-0.320000,-0.486000,-1.430000,52.351000,-77.038000,-14.550000,29.42
0.325810,-0.118000,-0.555000,-1.367000,58.290000,-84.168000,-3.802000,29.47
0.335827,0.051000,-0.585000,-1.238000,63.008000,-101.649000,14.504000,29.47
0.345822,0.209000,-0.597000,-1.111000,63.191000,-112.321000,36.046000,29.42
0.355838,0.284000,-0.551000,-1.009000,58.931000,-116.336000,59.115000,29.42
0.365808,0.353000,-0.484000,-0.892000,52.916000,-116.779000,80.397000,29.38
0.375833,0.427000,-0.389000,-0.806000,41.786000,-107.664000,99.695000,29.38
0.385941,0.472000,-0.189000,-0.756000,31.924000,-88.290000,114.229000,29.42
0.395916,0.530000,0.021000,-0.791000,27.160000,-71.618000,120.641000,29.42
0.405849,0.620000,0.173000,-0.877000,22.290000,-59.328000,119.847000,29.47
0.415934,0.671000,0.282000,-0.981000,14.916000,-57.725000,112.198000,29.47
0.425882,0.766000,0.352000,-1.133000,9.939000,-57.130000,98.824000,29.57
0.436034,0.845000,0.423000,-1.224000,9.725000,-66.718000,82.580000,29.42
0.446016,0.883000,0.424000,-1.215000,11.969000,-82.763000,63.328000,29.38
0.456295,0.884000,0.381000,-1.091000,9.908000,-93.924000,42.351000,29.38
0.466056,0.896000,0.331000,-0.957000,8.550000,-103.771000,21.176000,29.47
0.476029,0.922000,0.259000,-0.855000,10.183000,-110.198000,3.237000,29.52
0.486871,0.936000,0.169000,-0.720000,14.763000,-108.046000,-9.969000,29.42
0.499697,0.919000,0.089000,-0.625000,20.626000,-100.870000,-17.664000,29.38
0.508509,0.904000,0.036000,-0.504000,26.885000,-89.527000,-21.130000,29.47
0.516111,0.891000,0.002000,-0.416000,30.809000,-75.282000,-21.237000,29.52
0.525909,0.881000,-0.032000,-0.355000,30.290000,-58.962000,-19.786000,29.52
0.535837,0.931000,-0.051000,-0.364000,29.802000,-41.237000,-17.603000,29.47
0.545724,1.082000,-0.053000,-0.524000,33.389000,-28.275000,-11.313000,29.38
0.555729,1.204000,-0.042000,-0.601000,37.618000,-25.542000,-1.878000,29.47
0.565728,1.245000,0.021000,-0.543000,38.626000,-26.076000,3.069000,29.33
0.575817,1.213000,0.105000,-0.393000,31.145000,-22.198000,0.733000,29.42
0.585772,1.259000,0.132000,-0.370000,20.412000,-15.298000,-6.794000,29.47
0.595721,1.531000,0.207000,0.142000,15.435000,59.084000,-9.817000,29.47
0.605739,1.740000,0.333000,0.441000,-7.832000,37.847000,-31.450000,29.52
0.617143,2.494000,0.368000,-0.054000,-13.954000,63.130000,-40.733000,29.33
0.625716,1.056000,-0.212000,-0.973000,20.916000,75.008000,-13.145000,29.47
0.635749,0.912000,-0.349000,-1.835000,32.702000,38.672000,12.092000,29.47
0.645659,-0.155000,-0.829000,-1.349000,14.626000,18.244000,2.580000,29.52
0.655714,-0.538000,-1.015000,-0.738000,4.198000,11.710000,-28.427000,29.42
0.665712,0.331000,-0.922000,-0.655000,14.000000,38.427000,-20.214000,29.47
0.675722,0.848000,-0.625000,-0.766000,12.870000,53.924000,-2.260000,29.38
0.685795,0.688000,-0.007000,-1.116000,12.641000,48.779000,2.290000,29.47
0.695752,0.212000,0.335000,-1.168000,17.130000,43.939000,-6.626000,29.52
0.705824,-0.036000,0.085000,-0.874000,26.260000,50.321000,-20.443000,29.47
0.715837,0.163000,-0.328000,-0.743000,36.290000,66.733000,-23.069000,29.47
0.725722,0.371000,-0.371000,-0.922000,41.237000,76.351000,-21.573000,29.47
0.735756,0.321000,-0.107000,-0.956000,43.573000,77.695000,-25.588000,29.42
0.745869,0.468000,-0.271000,-1.168000,35.038000,66.672000,-36.595000,29.42
0.755754,0.680000,-0.569000,-0.990000,30.763000,57.405000,-30.183000,29.38
0.765751,0.690000,-0.626000,-0.942000,20.748000,60.137000,-22.443000,29.47
0.775845,0.639000,-0.587000,-0.910000,11.267000,52.427000,-15.267000,29.42
0.785936,0.505000,-0.479000,-0.895000,1.664000,38.733000,-15.527000,29.42
0.795813,0.542000,-0.643000,-0.940000,-0.458000,21.847000,-14.290000,29.42
0.805818,0.540000,-0.598000,-0.814000,-3.664000,14.504000,-11.908000,29.47
0.815898,0.426000,-0.524000,-0.799000,-8.611000,19.496000,-12.412000,29.38
0.825894,0.366000,-0.469000,-0.784000,-12.244000,21.267000,-14.168000,29.52
0.835915,0.304000,-0.474000,-0.733000,-14.305000,21.573000,-16.672000,29.42
0.846025,0.323000,-0.460000,-0.758000,-19.237000,21.985000,-19.267000,29.47
0.855994,0.306000,-0.353000,-0.742000,-26.672000,24.656000,-22.092000,29.47
0.866020,0.246000,-0.349000,-0.615000,-42.550000,30.931000,-26.824000,29.52
0.876006,0.227000,-0.446000,-0.487000,-70.366000,40.137000,-34.565000,29.52
0.886188,0.400000,-0.691000,-0.777000,-88.824000,51.557000,-39.939000,29.47
0.896049,0.568000,-0.501000,-0.921000,-88.733000,47.344000,-40.061000,29.38
0.906196,0.531000,-0.331000,-0.969000,-84.336000,42.107000,-38.382000,29.42
0.916234,0.495000,-0.375000,-0.842000,-82.198000,35.313000,-38.824000,29.52
0.926103,1.789000,-0.831000,-0.701000,-107.893000,139.221000,-72.718000,29.47
0.935881,-0.271000,0.050000,-1.107000,-24.214000,-88.947000,7.176000,29.38
0.945847,0.693000,0.044000,-1.881000,-65.511000,55.374000,-33.450000,29.38
0.955890,0.333000,-0.200000,-0.675000,-33.298000,9.191000,-27.771000,29.52
0.965993,0.560000,-0.418000,-0.904000,-36.733000,32.748000,-31.130000,29.47
0.975952,0.407000,-0.180000,-0.830000,-37.527000,21.786000,-34.550000,29.47
0.986050,0.416000,-0.271000,-0.793000,-39.695000,23.160000,-36.702000,29.57
0.995961,0.429000,-0.163000,-0.853000,-38.122000,27.863000,-38.595000,29.52
1.005961,0.451000,-0.242000,-0.804000,-35.756000,29.832000,-40.580000,29.52
1.015915,0.402000,-0.255000,-0.862000,-35.756000,43.237000,-38.397000,29.47
1.025851,0.517000,-0.156000,-0.874000,-31.450000,47.618000,-38.015000,29.47
1.035823,0.514000,-0.211000,-0.897000,-28.305000,52.702000,-39.450000,29.52
1.045759,0.462000,-0.195000,-0.912000,-23.313000,64.107000,-39.985000,29.52
1.055746,0.670000,-0.376000,-0.814000,-24.427000,74.137000,-37.481000,29.47
1.065743,0.483000,-0.241000,-0.905000,-28.763000,91.603000,-36.809000,29.38
1.075773,0.484000,-0.165000,-0.838000,-33.374000,104.260000,-31.008000,29.42
1.085828,0.530000,-0.049000,-0.869000,-28.763000,133.191000,-26.427000,29.42
1.095769,0.543000,-0.076000,-0.856000,-25.160000,154.885000,-22.687000,29.38
1.105734,0.494000,-0.016000,-0.830000,-23.389000,183.130000,-20.916000,29.47
1.115735,0.434000,0.018000,-0.794000,-17.359000,211.282000,-24.153000,29.38
1.125747,0.499000,0.002000,-0.839000,-13.023000,225.496000,-25.191000,29.42
1.135788,0.452000,-0.050000,-0.822000,-11.221000,237.771000,-26.183000,29.42
1.145752,0.509000,-0.129000,-0.766000,-20.672000,250.275000,-33.282000,29.47
1.155746,0.678000,-0.165000,-0.820000,-28.809000,267.053000,-41.466000,29.38
1.165768,0.584000,-0.280000,-0.863000,-39.023000,282.122000,-50.351000,29.42
1.175780,0.877000,-0.326000,-0.976000,-40.198000,305.099000,-60.489000,29.47
1.185737,1.000000,-0.422000,-1.089000,-22.702000,335.099000,-68.489000,29.47
1.195972,1.157000,-0.408000,-1.266000,-10.336000,375.863000,-76.382000,29.47
1.205845,1.532000,-0.281000,-1.535000,17.481000,431.863000,-75.649000,29.52
1.215867,2.227000,-0.460000,-2.218000,42.809000,435.237000,-77.466000,29.42
1.225854,2.177000,-0.380000,-2.108000,68.137000,393.878000,-92.260000,29.38
1.236010,2.023000,-0.363000,-2.140000,51.740000,390.092000,-110.260000,29.47
1.245867,1.805000,-0.335000,-2.503000,12.443000,343.710000,-135.786000,29.52
1.255891,0.651000,-1.014000,-2.522000,-41.878000,285.878000,-146.198000,29.42
1.265934,0.196000,-1.221000,-2.037000,-99.878000,135.206000,-132.443000,29.47
1.275983,0.837000,-1.525000,-4.000000,-89.588000,54.504000,-130.779000,29.47
1.285939,1.205000,-0.673000,-4.000000,-161.557000,-239.084000,-146.840000,29.52
1.296068,-1.934000,-0.151000,-1.310000,-184.733000,-237.771000,-225.939000,29.42
1.306044,-0.595000,-0.014000,-1.884000,-151.832000,-253.725000,-286.137000,29.47
1.316129,0.065000,-0.085000,-2.007000,-87.099000,-298.244000,-297.863000,29.57
1.326025,0.125000,-0.558000,-1.790000,-7.511000,-318.779000,-280.473000,29.47
1.336125,0.285000,-1.166000,-1.350000,20.824000,-325.053000,-252.168000,29.42
1.345959,0.268000,-1.353000,-0.793000,17.969000,-304.763000,-218.260000,29.42
1.355968,0.282000,-1.300000,-0.657000,34.168000,-279.023000,-169.099000,29.38
1.366216,0.468000,-1.221000,-0.657000,67.466000,-260.718000,-104.137000,29.47
1.375913,0.744000,-1.340000,-0.807000,99.618000,-257.878000,-33.924000,29.33
1.385973,0.880000,-1.388000,-0.803000,107.405000,-260.061000,31.450000,29.47
1.396143,0.921000,-1.353000,-0.815000,88.855000,-251.221000,85.374000,29.47
1.406511,0.910000,-1.034000,-0.896000,73.710000,-239.756000,121.603000,29.57
1.416093,0.985000,-0.681000,-1.039000,75.802000,-238.687000,145.450000,29.42
1.426005,1.102000,-0.483000,-1.036000,93.069000,-250.641000,162.809000,29.52
1.436274,1.180000,-0.285000,-0.959000,110.366000,-258.977000,174.168000,29.38
1.446225,1.179000,-0.199000,-0.954000,121.450000,-263.176000,170.779000,29.47
1.456397,1.212000,-0.139000,-0.982000,126.366000,-261.832000,164.611000,29.42
1.466050,1.243000,-0.107000,-1.050000,132.458000,-259.252000,157.847000,29.33
1.476008,1.258000,-0.018000,-1.078000,143.450000,-254.992000,154.412000,29.38
1.486109,1.267000,0.051000,-1.105000,158.275000,-246.947000,151.252000,29.38
1.496099,1.361000,0.080000,-1.155000,172.046000,-231.740000,146.962000,29.52
1.506103,1.544000,0.151000,-1.176000,187.725000,-210.824000,143.191000,29.42
1.516122,1.862000,0.180000,-1.244000,198.916000,-194.122000,139.069000,29.38
1.525997,2.166000,0.250000,-1.241000,208.137000,-175.496000,136.168000,29.38
1.535972,2.463000,0.430000,-1.184000,217.053000,-169.176000,136.336000,29.42
1.545762,2.600000,0.667000,-1.003000,223.084000,-160.382000,139.511000,29.57
1.555720,2.564000,0.821000,-0.848000,223.008000,-148.427000,146.183000,29.47
1.565724,2.671000,0.919000,-0.832000,215.359000,-137.344000,157.038000,29.38
1.575765,2.838000,1.000000,-0.685000,199.542000,-129.817000,166.916000,29.42
1.585751,2.999000,1.159000,-0.398000,178.809000,-128.794000,169.282000,29.42
1.595768,2.896000,1.343000,0.118000,153.420000,-120.015000,152.870000,29.47
1.608564,2.676000,1.577000,0.545000,120.855000,-103.130000,110.595000,29.47
1.620477,2.555000,1.656000,0.652000,79.160000,-83.542000,52.412000,29.42
1.628172,2.701000,1.836000,0.497000,50.122000,-61.466000,8.122000,29.42
1.637544,2.770000,1.686000,0.424000,34.809000,-60.687000,-8.275000,29.47
1.646519,3.651000,1.666000,1.291000,-77.557000,24.168000,-40.504000,29.47
1.655897,-0.265000,1.611000,1.498000,-90.397000,91.817000,-72.809000,29.42
1.666554,1.771000,0.313000,-2.771000,-51.649000,132.504000,-61.634000,29.52
1.676546,-0.131000,-1.063000,-2.631000,-33.466000,52.473000,-49.099000,29.38
1.686669,-0.742000,-1.102000,-0.521000,-1.466000,106.626000,-77.618000,29.38
1.696522,-0.314000,-0.740000,0.667000,-8.504000,192.702000,-93.038000,29.42
1.706699,1.673000,-0.281000,-1.634000,-8.092000,260.534000,-75.939000,29.42
1.716545,1.576000,1.061000,-2.575000,23.786000,171.206000,-57.557000,29.38
1.726634,0.620000,1.022000,-1.816000,48.214000,116.198000,-90.550000,29.47
1.736285,1.333000,-0.887000,-1.658000,32.260000,82.550000,-84.473000,29.42
1.746410,1.245000,-1.509000,-0.542000,12.076000,80.595000,-45.282000,29.42
1.756408,0.975000,-0.893000,-0.909000,-14.198000,92.550000,-29.939000,29.47
1.766494,0.607000,0.114000,-1.327000,-15.924000,48.168000,-27.374000,29.47
1.776619,0.820000,-0.460000,-1.009000,-8.962000,20.198000,-19.847000,29.38
1.786045,0.791000,-0.864000,-0.789000,-11.130000,14.031000,-8.076000,29.42
1.796093,0.518000,-0.492000,-0.922000,-16.885000,17.939000,-4.885000,29.52
1.806558,0.431000,-0.297000,-0.931000,-17.710000,24.611000,-4.641000,29.47
1.816613,0.370000,-0.459000,-0.754000,-16.305000,32.244000,-5.573000,29.38
1.826382,0.279000,-0.446000,-0.710000,-21.450000,34.321000,-9.389000,29.52
1.836372,0.263000,-0.326000,-0.750000,-30.305000,36.748000,-14.458000,29.52
1.846531,0.352000,-0.273000,-0.809000,-36.824000,37.344000,-17.802000,29.47
1.855988,0.378000,-0.326000,-0.751000,-49.038000,40.031000,-20.550000,29.38
1.866104,0.409000,-0.448000,-0.743000,-59.985000,41.740000,-24.107000,29.52
1.875922,0.451000,-0.486000,-0.801000,-67.618000,36.244000,-27.954000,29.42
1.885949,0.506000,-0.546000,-0.840000,-69.557000,32.107000,-31.206000,29.47
1.896100,0.542000,-0.419000,-0.828000,-69.588000,25.954000,-34.015000,29.38
1.906172,0.517000,-0.393000,-0.825000,-68.901000,19.496000,-36.809000,29.42
1.915983,0.504000,-0.378000,-0.816000,-68.244000,13.863000,-39.160000,29.47
1.926103,0.490000,-0.333000,-0.870000,-67.420000,11.695000,-41.099000,29.47
1.936385,0.481000,-0.165000,-0.857000,-58.901000,1.298000,-41.176000,29.38
1.945901,0.504000,-0.331000,-0.796000,-59.679000,5.145000,-42.870000,29.52
1.955972,0.469000,-0.238000,-0.865000,-59.954000,3.374000,-43.863000,29.42
1.966156,0.519000,-0.164000,-0.987000,-52.550000,5.053000,-42.855000,29.47
1.976369,0.504000,-0.175000,-0.936000,-45.573000,6.656000,-40.611000,29.47
1.986324,0.484000,-0.158000,-0.890000,-40.885000,7.298000,-38.260000,29.42
1.996623,0.500000,-0.133000,-0.913000,-36.687000,8.977000,-35.588000,29.42
2.005876,0.520000,-0.151000,-0.882000,-32.611000,13.252000,-33.756000,29.42
2.015850,0.476000,-0.118000,-0.885000,-29.679000,23.038000,-29.618000,29.38
2.026038,0.498000,-0.121000,-0.850000,-25.023000,27.282000,-27.679000,29.38
2.036024,0.490000,-0.152000,-0.828000,-21.435000,30.534000,-27.450000,29.42
2.046012,0.497000,-0.181000,-0.823000,-19.695000,32.489000,-29.221000,29.33
2.056002,0.616000,-0.564000,-0.768000,-20.901000,31.496000,-32.351000,29.38
2.066112,0.539000,0.053000,-0.932000,-19.237000,36.931000,-33.527000,29.47
2.076132,0.535000,-0.192000,-0.847000,-21.939000,43.908000,-28.336000,29.42
2.086123,0.490000,-0.208000,-0.882000,-22.061000,57.481000,-28.321000,29.52
2.096158,0.470000,-0.211000,-0.888000,-25.466000,71.115000,-26.351000,29.47
2.106192,0.545000,-0.154000,-0.915000,-24.824000,90.168000,-26.214000,29.38
2.116256,0.494000,-0.127000,-0.889000,-25.450000,115.115000,-23.542000,29.52
2.126303,0.496000,-0.032000,-0.881000,-23.847000,141.786000,-19.313000,29.38
2.136109,0.474000,-0.012000,-0.856000,-21.084000,168.870000,-17.282000,29.57
2.146139,0.370000,0.032000,-0.853000,-19.542000,195.603000,-22.443000,29.47
2.156177,0.467000,0.022000,-0.867000,-16.275000,224.229000,-24.962000,29.52
2.166260,0.406000,0.024000,-0.839000,-11.115000,241.130000,-23.863000,29.42
2.176213,0.431000,0.066000,-0.857000,-4.840000,268.107000,-26.061000,29.47
2.186095,0.542000,-0.108000,-0.870000,-5.176000,293.099000,-32.198000,29.47
2.196251,0.445000,-0.229000,-0.846000,-14.000000,310.504000,-41.221000,29.42
2.206231,0.931000,-0.321000,-1.016000,-25.634000,332.122000,-62.504000,29.42
2.216191,0.939000,-0.550000,-1.293000,-34.198000,359.679000,-78.458000,29.38
2.226411,1.226000,-0.389000,-1.419000,-35.664000,423.878000,-90.641000,29.47
2.236248,1.697000,-0.279000,-1.902000,-42.840000,500.260000,-90.153000,29.52
2.246331,2.612000,-0.336000,-2.697000,-47.115000,500.260000,-98.595000,29.42
2.256327,2.764000,-0.898000,-2.529000,63.206000,450.336000,-116.840000,29.52
2.266372,2.386000,-1.176000,-3.142000,89.221000,450.427000,-117.099000,29.38
2.276461,1.452000,-0.489000,-3.042000,42.962000,369.405000,-134.382000,29.47
2.286225,0.326000,-2.057000,-4.000000,4.458000,209.985000,-95.298000,29.42
2.296036,-0.063000,-2.352000,-2.111000,17.023000,124.153000,-63.802000,29.42
2.306517,1.773000,-1.991000,-4.000000,-98.519000,-138.626000,-52.458000,29.38
2.316565,-1.374000,-0.869000,-1.577000,-141.023000,-196.214000,-76.092000,29.47
2.325961,-0.905000,-0.706000,-1.317000,-129.435000,-221.832000,-114.763000,29.33
2.335943,-0.301000,-0.521000,-1.751000,-105.420000,-270.321000,-127.099000,29.38
2.346072,-0.139000,-0.572000,-1.545000,-47.130000,-295.817000,-121.344000,29.38
2.356046,-0.045000,-0.739000,-1.334000,3.115000,-305.313000,-116.809000,29.38
2.366129,0.099000,-0.958000,-1.161000,19.176000,-313.802000,-112.947000,29.42
2.376082,0.217000,-0.966000,-0.912000,16.000000,-316.809000,-107.542000,29.42
2.386061,0.368000,-0.848000,-0.807000,24.275000,-322.229000,-97.008000,29.38
2.396034,0.490000,-0.694000,-0.738000,52.321000,-324.763000,-75.344000,29.47
2.406117,0.571000,-0.656000,-0.663000,89.099000,-315.038000,-47.710000,29.52
2.416181,0.640000,-0.695000,-0.631000,122.122000,-301.786000,-17.740000,29.42
2.426175,0.723000,-0.697000,-0.655000,144.153000,-281.786000,8.748000,29.42
2.436287,0.826000,-0.671000,-0.758000,153.450000,-264.031000,30.763000,29.47
2.446346,0.942000,-0.570000,-0.874000,158.366000,-251.542000,49.695000,29.47
2.456228,0.986000,-0.396000,-0.966000,166.183000,-243.588000,64.580000,29.42
2.466418,1.071000,-0.240000,-1.039000,179.893000,-243.252000,75.969000,29.42
2.476438,1.156000,-0.188000,-1.172000,188.809000,-242.550000,83.099000,29.47
2.485945,1.260000,-0.209000,-1.282000,187.771000,-242.351000,88.397000,29.47
2.496096,1.336000,-0.215000,-1.291000,185.221000,-239.649000,97.374000,29.52
2.506333,1.442000,-0.215000,-1.301000,193.466000,-248.076000,109.267000,29.42
2.516501,1.515000,-0.172000,-1.293000,187.511000,-214.092000,127.664000,29.47
2.526681,1.626000,-0.079000,-1.299000,193.313000,-204.473000,149.069000,29.47
2.536319,1.757000,0.047000,-1.281000,198.382000,-191.634000,168.855000,29.52
2.546481,1.884000,0.282000,-1.182000,205.588000,-170.718000,182.702000,29.42
2.556552,2.060000,0.496000,-1.143000,208.260000,-143.298000,188.824000,29.42
2.566548,2.313000,0.682000,-1.216000,213.221000,-118.290000,194.031000,29.47
2.576212,2.629000,0.836000,-1.299000,225.466000,-106.031000,206.718000,29.47
2.586235,2.939000,0.974000,-1.198000,240.336000,-104.763000,226.977000,29.42
2.596350,3.107000,1.039000,-0.938000,228.763000,-111.130000,237.221000,29.47
2.606395,3.193000,1.106000,-0.316000,172.962000,-113.374000,223.160000,29.47
2.616343,2.984000,1.445000,0.344000,102.275000,-107.710000,182.351000,29.38
2.626369,2.669000,1.948000,0.737000,56.931000,-91.832000,120.702000,29.52
2.636302,2.775000,2.274000,0.842000,50.656000,-71.496000,59.191000,29.42
2.646279,2.929000,2.059000,0.926000,45.954000,-49.924000,11.191000,29.38
2.656308,2.502000,0.426000,1.961000,-24.809000,46.351000,-2.595000,29.47
2.666341,2.996000,1.142000,1.935000,-200.397000,66.489000,-69.405000,29.42
2.676388,-1.406000,1.468000,0.801000,-205.695000,108.351000,-116.672000,29.33
2.686247,1.857000,-0.158000,-2.214000,-227.328000,241.679000,-62.840000,29.47
2.696316,0.169000,-1.242000,-2.931000,-62.321000,59.634000,-50.672000,29.47
2.706351,0.028000,0.174000,-1.237000,-53.634000,156.702000,-76.962000,29.42
2.716372,0.239000,0.638000,-0.561000,-21.832000,176.626000,-107.634000,29.42
2.726460,1.334000,0.653000,-1.354000,-1.679000,209.756000,-112.443000,29.47
2.736190,2.127000,0.190000,-2.833000,-0.824000,131.710000,-105.802000,29.47
2.746461,1.428000,-0.286000,-1.587000,-20.244000,66.305000,-77.985000,29.47
2.756511,0.911000,-0.864000,-0.676000,-31.298000,68.794000,-65.664000,29.42
2.766523,0.850000,-0.713000,-0.917000,-34.870000,83.954000,-46.351000,29.52
2.776478,0.518000,0.036000,-1.229000,-44.947000,55.710000,-42.412000,29.38
2.786390,0.695000,-0.292000,-0.978000,-44.870000,26.489000,-36.229000,29.38
2.796430,0.800000,-0.698000,-0.775000,-43.771000,-0.718000,-27.176000,29.52
2.806536,0.643000,-0.441000,-0.923000,-47.664000,-6.656000,-22.840000,29.47
2.817299,0.521000,-0.257000,-0.984000,-46.351000,-7.832000,-20.198000,29.47
2.826047,0.473000,-0.409000,-0.875000,-46.656000,0.183000,-19.359000,29.57
2.836585,0.429000,-0.401000,-0.855000,-45.863000,4.855000,-19.450000,29.42
2.846328,0.342000,-0.251000,-0.831000,-47.954000,5.313000,-21.389000,29.42
2.855741,0.377000,-0.259000,-0.889000,-47.740000,6.137000,-21.496000,29.38
2.865806,0.433000,-0.330000,-0.875000,-48.092000,10.550000,-20.977000,29.47
2.875778,0.444000,-0.363000,-0.854000,-50.092000,16.229000,-21.130000,29.42
2.885918,0.457000,-0.323000,-0.856000,-50.947000,19.023000,-21.466000,29.42
2.895828,0.474000,-0.317000,-0.897000,-48.458000,16.901000,-20.519000,29.47
2.905802,0.471000,-0.337000,-0.901000,-44.885000,14.244000,-20.855000,29.47
2.915835,0.447000,-0.269000,-0.846000,-40.855000,9.328000,-21.450000,29.42
2.925901,0.468000,-0.270000,-0.870000,-40.122000,11.069000,-22.290000,29.42
2.935941,0.445000,-0.215000,-0.865000,-39.237000,9.664000,-22.397000,29.38
2.945957,0.446000,-0.218000,-0.853000,-38.656000,10.504000,-22.580000,29.47
2.955895,0.418000,-0.228000,-0.875000,-38.229000,10.779000,-23.511000,29.42
2.965956,0.397000,-0.216000,-0.849000,-37.191000,9.481000,-24.840000,29.42
2.975935,0.429000,-0.167000,-0.866000,-36.351000,11.725000,-26.351000,29.47
2.986080,0.437000,-0.228000,-0.859000,-35.099000,14.076000,-26.809000,29.47
2.996104,0.456000,-0.165000,-0.871000,-32.595000,11.725000,-26.977000,29.38
3.006049,0.113000,-0.205000,-0.641000,-35.695000,38.473000,-24.779000,29.42
3.016141,0.344000,-0.116000,-0.624000,-23.191000,15.191000,-26.809000,29.38
3.026122,0.408000,-0.100000,-0.847000,-20.565000,17.893000,-22.901000,29.47
3.036152,0.492000,-0.073000,-0.868000,-17.725000,21.542000,-20.504000,29.47
3.046028,0.453000,-0.101000,-0.887000,-13.832000,23.130000,-17.130000,29.42
3.055918,0.486000,-0.096000,-0.873000,-11.450000,28.382000,-14.977000,29.42
3.065920,0.502000,-0.127000,-0.852000,-9.603000,30.962000,-13.786000,29.38
3.075925,0.485000,-0.125000,-0.847000,-7.771000,34.275000,-13.405000,29.38
3.085996,0.477000,-0.149000,-0.835000,-6.748000,36.397000,-14.321000,29.42
3.095913,0.446000,-0.479000,-0.745000,-8.489000,41.435000,-14.015000,29.42
3.105921,0.441000,-0.088000,-0.879000,-10.962000,51.985000,-17.160000,29.38
3.115931,0.510000,-0.233000,-0.874000,-15.603000,57.237000,-18.229000,29.38
3.125952,0.470000,-0.255000,-0.861000,-24.824000,72.931000,-19.908000,29.42
3.136094,0.488000,-0.227000,-0.896000,-25.756000,87.389000,-21.710000,29.42
3.146044,0.528000,-0.222000,-0.875000,-30.611000,104.046000,-23.863000,29.38
3.156107,0.488000,-0.157000,-0.858000,-35.740000,120.107000,-24.366000,29.47
3.166074,0.460000,-0.106000,-0.847000,-37.618000,142.092000,-26.183000,29.42
3.176100,0.429000,-0.022000,-0.865000,-36.641000,172.473000,-29.878000,29.52
3.186163,0.427000,0.038000,-0.915000,-35.145000,199.160000,-29.221000,29.42
3.196207,0.466000,0.025000,-0.910000,-27.740000,216.794000,-30.397000,29.47
3.206167,0.465000,0.044000,-0.873000,-26.733000,234.198000,-32.794000,29.38
3.216239,0.507000,0.005000,-0.845000,-22.977000,253.878000,-38.641000,29.42
3.226414,0.476000,-0.131000,-0.837000,-31.847000,266.229000,-54.183000,29.47
3.236195,0.565000,-0.283000,-0.837000,-57.237000,290.962000,-78.397000,29.38
3.246277,0.671000,-0.348000,-0.887000,-82.641000,305.817000,-108.153000,29.47
3.256356,0.993000,-0.374000,-1.031000,-101.313000,330.580000,-134.061000,29.52
3.266383,1.271000,-0.616000,-1.091000,-127.435000,348.565000,-160.977000,29.42
3.276444,1.466000,-0.522000,-1.581000,-160.840000,459.359000,-166.580000,29.38
3.286248,2.208000,-0.439000,-2.165000,-155.282000,472.855000,-190.168000,29.38
3.296430,2.594000,-0.165000,-2.004000,-141.389000,491.771000,-205.588000,29.52
3.306508,3.115000,-0.920000,-2.582000,-17.038000,410.473000,-191.282000,29.42
3.316503,2.275000,-1.326000,-2.663000,-12.198000,369.084000,-172.489000,29.38
3.326516,1.142000,-0.776000,-2.734000,-88.458000,281.893000,-191.084000,29.47
3.336210,-1.268000,-1.349000,-2.525000,-122.519000,78.015000,-120.504000,29.52
3.346354,1.860000,-1.773000,-4.000000,34.015000,108.748000,6.595000,29.42
3.356469,1.450000,-2.035000,-3.759000,-49.191000,-167.603000,1.008000,29.52
3.366450,-1.362000,-1.641000,-1.013000,-107.023000,-163.374000,6.427000,29.47
3.376562,-0.628000,-0.990000,-1.221000,-79.466000,-223.710000,-5.802000,29.47
3.386526,-0.238000,-0.784000,-1.481000,-67.176000,-253.527000,-3.267000,29.42
3.396449,-0.299000,-0.638000,-1.313000,-27.481000,-242.076000,2.198000,29.42
3.406512,-0.057000,-0.688000,-1.375000,11.954000,-242.718000,3.481000,29.47
3.416436,0.126000,-0.702000,-1.301000,32.000000,-268.809000,0.153000,29.47
3.426396,0.240000,-0.698000,-1.118000,40.061000,-292.275000,-5.221000,29.42
3.436444,0.343000,-0.574000,-0.986000,51.298000,-304.198000,-6.092000,29.38
3.446411,0.495000,-0.451000,-0.886000,71.099000,-305.053000,-1.405000,29.47
3.456509,0.583000,-0.413000,-0.775000,95.359000,-296.672000,7.664000,29.47
3.466451,0.616000,-0.396000,-0.703000,120.092000,-287.221000,18.427000,29.42
3.476643,0.673000,-0.357000,-0.705000,144.626000,-275.023000,30.534000,29.42
3.486388,0.772000,-0.384000,-0.776000,161.450000,-259.725000,41.756000,29.47
3.496364,0.912000,-0.383000,-0.913000,172.794000,-247.084000,54.351000,29.38
3.506574,1.055000,-0.342000,-1.080000,183.008000,-241.389000,67.252000,29.42
3.516371,1.219000,-0.271000,-1.230000,194.351000,-243.328000,80.458000,29.42
3.526611,1.439000,-0.202000,-1.350000,203.038000,-244.840000,93.588000,29.47
3.536296,1.266000,-0.202000,-1.179000,196.595000,-261.908000,94.641000,29.47
3.546436,1.192000,-0.272000,-1.243000,192.779000,-254.015000,104.519000,29.42
3.556446,1.705000,-0.168000,-1.338000,208.794000,-225.863000,128.244000,29.42
3.566463,1.791000,-0.125000,-1.258000,214.626000,-226.580000,150.656000,29.28
3.576512,1.819000,-0.058000,-1.164000,219.908000,-215.115000,172.931000,29.47
3.586484,2.015000,0.208000,-1.183000,217.939000,-190.992000,189.802000,29.42
3.596483,2.170000,0.547000,-1.111000,221.023000,-160.076000,203.298000,29.42
3.606490,2.211000,0.875000,-1.051000,227.817000,-121.573000,206.855000,29.42
3.616429,2.624000,1.039000,-1.190000,233.496000,-90.427000,208.687000,29.47
3.626748,3.057000,1.162000,-1.205000,235.832000,-79.786000,214.763000,29.47
3.636425,3.479000,1.138000,-1.087000,228.885000,-82.611000,224.305000,29.42
3.646447,3.756000,1.281000,-0.585000,209.405000,-127.542000,223.450000,29.38
3.656397,3.387000,1.590000,0.398000,169.405000,-107.725000,205.863000,29.38
3.666265,2.936000,2.076000,1.049000,153.130000,-96.382000,169.450000,29.47
3.676011,2.915000,2.357000,1.261000,149.618000,-58.733000,133.359000,29.42
3.685979,3.101000,1.348000,1.705000,66.244000,18.702000,105.008000,29.42
3.695891,3.255000,1.063000,1.908000,-105.817000,43.466000,48.183000,29.47
3.705755,2.787000,2.340000,1.642000,-251.099000,94.443000,-29.328000,29.38
3.715752,0.156000,0.745000,-1.220000,-167.817000,116.977000,-18.321000,29.42
3.725729,0.704000,-0.785000,-3.440000,-149.466000,93.405000,-6.427000,29.42
3.735812,-0.958000,-0.510000,-1.889000,-152.947000,149.649000,19.481000,29.47
3.745717,-0.546000,1.747000,-0.907000,-56.779000,88.733000,-72.260000,29.38
3.755705,0.401000,1.305000,-0.823000,-1.191000,90.840000,-135.863000,29.42
3.765713,1.864000,0.503000,-2.126000,11.893000,152.183000,-116.153000,29.52
3.775741,1.739000,-0.588000,-2.189000,11.771000,54.168000,-94.244000,29.47
3.785810,0.923000,-1.031000,-0.657000,-5.313000,44.000000,-80.275000,29.47
3.795827,0.915000,-0.900000,-0.901000,-21.313000,47.084000,-62.336000,29.42
3.805783,0.659000,-0.328000,-0.996000,-26.748000,43.878000,-49.023000,29.47
3.815739,0.475000,-0.167000,-1.021000,-31.405000,39.695000,-53.130000,29.38
3.825741,0.700000,-0.636000,-0.805000,-34.015000,29.191000,-46.855000,29.57
3.835823,0.775000,-0.678000,-0.796000,-42.962000,24.107000,-38.290000,29.42
3.845790,0.613000,-0.414000,-0.906000,-45.496000,7.374000,-32.565000,29.42
3.855799,0.542000,-0.362000,-0.911000,-53.221000,-9.527000,-31.359000,29.47
3.865789,0.472000,-0.526000,-0.807000,-61.939000,-12.672000,-30.580000,29.47
3.875870,0.375000,-0.440000,-0.785000,-69.115000,-6.321000,-30.779000,29.42
3.887062,0.362000,-0.371000,-0.892000,-70.565000,0.046000,-30.626000,29.42
3.900552,0.483000,-0.371000,-0.977000,-64.611000,0.122000,-28.214000,29.47
3.905725,0.478000,-0.385000,-0.921000,-56.824000,3.557000,-24.351000,29.38
3.915697,0.433000,-0.303000,-0.907000,-52.351000,9.603000,-21.740000,29.42
3.925724,0.413000,-0.286000,-0.893000,-50.702000,13.008000,-20.992000,29.52
3.935935,0.398000,-0.282000,-0.827000,-52.565000,19.695000,-20.611000,29.47
3.945784,0.392000,-0.323000,-0.838000,-55.863000,22.321000,-20.275000,29.47
3.955749,0.293000,-0.356000,-0.752000,-57.481000,19.649000,-22.305000,29.42
3.965798,0.350000,-0.350000,-0.785000,-65.023000,17.496000,-25.863000,29.38
3.975838,0.424000,-0.342000,-0.812000,-68.244000,15.069000,-29.008000,29.38
3.985882,0.423000,-0.248000,-0.896000,-67.924000,20.107000,-28.702000,29.47
3.995829,0.484000,-0.154000,-0.972000,-58.122000,20.947000,-28.107000,29.42
4.005757,0.413000,-0.241000,-0.852000,-53.954000,20.427000,-28.061000,29.42
4.015839,0.421000,-0.229000,-0.883000,-52.489000,22.321000,-30.489000,29.47
4.025882,0.340000,-0.013000,-1.080000,-60.992000,49.679000,-25.710000,29.38
4.035913,0.386000,-0.200000,-0.769000,-37.237000,27.649000,-30.855000,29.42
4.045895,0.500000,-0.134000,-0.883000,-37.847000,30.794000,-28.504000,29.42
4.055910,0.463000,-0.102000,-0.873000,-35.389000,47.725000,-24.534000,29.38
4.065956,0.446000,-0.140000,-0.817000,-26.809000,23.511000,-24.015000,29.47
4.075955,0.271000,-0.081000,-0.875000,-35.130000,73.969000,-14.122000,29.42
4.086013,0.378000,0.112000,-1.267000,-0.031000,-19.389000,-25.359000,29.42
4.096070,0.760000,-0.045000,-1.066000,-9.649000,18.672000,-21.649000,29.38
4.106103,0.625000,-0.141000,-1.022000,-18.733000,32.397000,-23.450000,29.47
4.115911,0.416000,-0.268000,-0.781000,-11.618000,49.298000,-22.641000,29.47
4.125860,0.523000,-0.410000,-0.540000,-17.618000,83.008000,-21.924000,29.42
4.136066,0.451000,-0.298000,-0.838000,-19.115000,57.130000,-33.298000,29.52
4.146085,0.673000,-0.527000,-0.911000,-26.794000,53.328000,-38.962000,29.38
4.156077,0.338000,-0.445000,-0.877000,-36.718000,83.786000,-44.626000,29.47
4.166151,0.601000,-0.184000,-0.950000,-48.458000,78.336000,-45.420000,29.52
4.176174,0.558000,-0.030000,-0.959000,-62.382000,109.099000,-44.168000,29.38
4.186220,-0.560000,-1.090000,-1.248000,-21.664000,79.908000,-6.229000,29.38
4.196232,0.593000,-0.178000,0.440000,-0.305000,212.611000,-32.122000,29.47
4.206274,0.203000,0.054000,-0.795000,-92.061000,305.130000,-29.832000,29.42
4.216228,0.514000,0.124000,-0.885000,-32.290000,210.687000,-46.748000,29.42
4.225947,0.426000,0.071000,-0.907000,-12.641000,209.053000,-50.168000,29.47
4.236286,0.488000,0.039000,-0.990000,2.656000,201.511000,-57.740000,29.38
4.246279,0.430000,-0.123000,-0.994000,6.794000,230.641000,-76.611000,29.42
4.256598,0.369000,-0.154000,-0.783000,-38.198000,273.649000,-115.069000,29.42
4.266499,0.580000,-0.217000,-0.849000,-71.603000,304.031000,-150.000000,29.47
4.276454,1.035000,-0.352000,-1.213000,-86.519000,309.817000,-173.817000,29.47
4.286513,1.373000,-0.695000,-1.511000,-74.977000,321.069000,-173.847000,29.33
4.296457,2.026000,-0.593000,-2.255000,-34.305000,346.275000,-157.924000,29.33
4.306398,2.505000,-0.681000,-2.972000,0.122000,408.656000,-166.107000,29.47
4.316712,2.207000,-0.520000,-2.589000,-58.489000,442.366000,-206.733000,29.47
4.326810,2.537000,-1.218000,-3.194000,-116.153000,423.420000,-214.366000,29.38
4.336564,0.963000,-1.139000,-3.940000,-121.603000,319.496000,-181.908000,29.42
4.346029,-0.403000,-2.305000,-3.532000,-31.313000,108.275000,-65.038000,29.52
4.356090,1.332000,-2.438000,-4.000000,13.405000,-54.275000,-13.115000,29.38
4.366222,-1.355000,-1.659000,-1.822000,-18.336000,-107.695000,-3.893000,29.47
4.376504,-0.873000,-1.577000,-1.180000,-26.687000,-99.542000,-13.084000,29.42
4.386511,-0.265000,0.406000,-1.707000,3.130000,-159.282000,-37.374000,29.47
4.396627,0.010000,-1.226000,-1.699000,-36.626000,-39.389000,-22.565000,29.38
4.406727,-0.357000,-0.920000,-1.435000,-14.321000,-283.924000,38.885000,29.38
4.416714,-0.106000,-0.972000,-1.431000,25.649000,-274.046000,38.076000,29.42
4.426822,0.154000,-0.872000,-1.217000,43.099000,-287.023000,43.908000,29.42
4.436686,0.188000,-0.627000,-0.993000,54.351000,-297.191000,44.702000,29.47
4.446707,0.461000,-0.492000,-0.977000,86.107000,-277.420000,48.397000,29.38
4.456527,0.594000,-0.398000,-0.945000,120.901000,-291.679000,56.580000,29.33
4.466370,0.692000,-0.347000,-0.954000,145.618000,-275.450000,63.282000,29.42
4.476310,0.752000,-0.337000,-1.018000,159.725000,-271.679000,67.130000,29.47
4.486054,0.868000,-0.243000,-1.096000,171.954000,-260.412000,67.511000,29.38
4.496052,0.960000,-0.164000,-1.168000,185.618000,-263.740000,68.000000,29.42
4.506052,0.980000,-0.089000,-1.206000,194.611000,-243.649000,70.641000,29.42
4.516204,1.081000,-0.035000,-1.244000,208.015000,-239.038000,69.725000,29.38
4.526215,1.133000,-0.133000,-1.290000,226.244000,-233.160000,73.878000,29.38
4.536351,1.443000,-0.249000,-1.390000,223.817000,-224.275000,84.198000,29.42
4.546195,1.597000,-0.321000,-1.349000,226.305000,-221.252000,106.611000,29.42
4.556262,1.837000,-0.335000,-1.081000,234.427000,-192.214000,135.145000,29.42
4.566196,1.797000,-0.084000,-1.201000,212.656000,-181.954000,171.527000,29.57
4.576251,1.909000,0.139000,-1.084000,207.298000,-174.580000,199.878000,29.38
4.586499,1.935000,0.528000,-1.032000,213.710000,-148.519000,220.733000,29.42
4.596390,2.101000,0.930000,-1.105000,211.206000,-113.634000,227.145000,29.47
4.606377,2.447000,1.139000,-1.158000,201.191000,-82.611000,227.725000,29.47
4.616332,2.620000,1.140000,-1.064000,194.458000,-51.710000,235.466000,29.47
4.626393,3.402000,1.267000,-1.075000,143.786000,-58.794000,229.176000,29.42
4.636323,3.485000,1.289000,-0.788000,80.595000,-78.122000,220.687000,29.33
4.646408,3.395000,1.344000,0.109000,22.122000,-78.672000,187.359000,29.47
4.656357,2.941000,1.983000,0.858000,-6.870000,-103.649000,134.076000,29.47
4.666303,2.693000,2.534000,1.087000,7.863000,-71.908000,86.947000,29.42
4.676234,0.671000,0.603000,-0.029000,-500.275000,122.321000,499.985000,29.42
4.686417,2.993000,2.003000,0.673000,99.542000,-55.679000,-2.702000,29.38
4.696247,2.282000,0.913000,-0.214000,-121.817000,-1.908000,16.779000,29.47
4.706390,2.312000,1.115000,0.224000,32.702000,12.870000,-45.573000,29.42
4.716325,0.549000,0.026000,-0.053000,-16.748000,-8.198000,-39.634000,29.42
4.726517,0.907000,-0.887000,-2.334000,-61.725000,17.359000,-41.786000,29.38
4.736214,-0.007000,-1.902000,-2.694000,-91.298000,27.405000,-22.275000,29.47
4.746312,-0.808000,-1.516000,-0.700000,12.366000,-270.031000,-50.641000,29.42
4.756388,-0.070000,-0.251000,-0.152000,-68.748000,-64.840000,-41.435000,29.42
4.766500,-0.466000,0.787000,-0.109000,-168.687000,500.260000,-31.191000,29.47
4.776546,0.988000,1.131000,-2.551000,-36.870000,109.008000,-94.718000,29.38
4.786339,1.264000,1.169000,-3.055000,-20.977000,179.038000,-95.084000,29.42
4.796351,0.838000,0.465000,-2.003000,-30.687000,242.351000,-114.534000,29.42
4.806255,1.231000,-1.138000,-1.231000,-9.267000,96.092000,-74.901000,29.38
4.816342,0.834000,-0.875000,-0.818000,-25.985000,129.466000,-40.305000,29.47
4.826407,0.500000,-0.072000,-1.249000,-7.832000,96.870000,-36.321000,29.52
4.836307,0.577000,-0.155000,-1.032000,-19.939000,121.328000,-36.107000,29.52
4.846389,0.929000,-0.927000,-0.767000,-24.702000,97.817000,-27.786000,29.42
4.856529,0.976000,-0.730000,-1.107000,-35.542000,75.176000,-22.504000,29.47
4.866341,0.719000,-0.259000,-1.281000,-17.786000,-32.611000,-31.664000,29.47
4.876349,0.715000,-0.465000,-0.812000,-33.573000,-27.740000,-28.244000,29.52
4.886124,0.506000,-0.573000,-0.727000,-51.908000,13.817000,-25.053000,29.42
4.896298,0.229000,-0.374000,-0.744000,-52.153000,-34.473000,-30.260000,29.38
4.906313,0.256000,-0.276000,-0.785000,-67.924000,0.092000,-35.954000,29.47
4.916343,0.470000,-0.260000,-0.914000,-68.305000,32.046000,-34.427000,29.42
4.926349,0.427000,-0.110000,-0.873000,-54.092000,39.115000,-29.786000,29.42
4.936558,0.417000,-0.170000,-0.904000,-54.046000,25.664000,-28.840000,29.47
4.946391,0.486000,-0.338000,-0.875000,-54.962000,22.061000,-28.626000,29.47
4.956365,0.509000,-0.180000,-0.956000,-45.466000,18.183000,-27.176000,29.42
4.966412,0.539000,-0.316000,-0.858000,-39.038000,17.374000,-27.298000,29.42
4.976311,0.536000,-0.324000,-0.823000,-39.450000,22.733000,-28.870000,29.47
4.986332,0.499000,-0.271000,-0.841000,-36.061000,15.511000,-30.137000,29.47
4.996441,0.524000,-0.173000,-0.851000,-33.710000,17.847000,-28.290000,29.42
5.006517,0.514000,-0.113000,-0.869000,-29.908000,15.664000,-25.802000,29.42
5.016377,0.477000,-0.163000,-0.906000,-30.565000,19.863000,-23.786000,29.38
5.026338,0.522000,-0.115000,-0.901000,-28.366000,20.489000,-22.519000,29.47
5.036215,0.526000,-0.100000,-0.881000,-21.954000,24.275000,-18.718000,29.38
5.046305,0.527000,-0.082000,-0.887000,-14.947000,21.817000,-15.374000,29.42
5.056142,0.418000,-0.178000,-0.830000,-12.076000,34.031000,-12.427000,29.42
5.066556,0.520000,-0.115000,-0.852000,-12.061000,32.458000,-12.290000,29.47
5.076387,0.521000,-0.200000,-0.818000,-12.305000,35.130000,-12.901000,29.38
5.086292,0.510000,-0.206000,-0.822000,-12.595000,35.664000,-14.748000,29.33
5.096373,0.457000,-0.138000,-0.822000,0.519000,34.992000,-19.038000,29.52
5.106363,0.493000,-0.106000,-0.812000,-10.031000,36.489000,-20.977000,29.38
5.116458,0.487000,-0.212000,-0.816000,-9.267000,40.183000,-22.565000,29.47
5.126294,0.463000,-0.207000,-0.825000,-15.328000,52.153000,-24.534000,29.33
5.136281,0.501000,-0.282000,-0.852000,-20.336000,62.229000,-27.053000,29.42
5.146381,0.535000,-0.249000,-0.868000,-25.435000,79.267000,-26.260000,29.38
5.156330,0.520000,-0.222000,-0.887000,-27.618000,102.534000,-27.282000,29.47
5.166361,0.497000,-0.190000,-0.879000,-30.198000,126.718000,-28.412000,29.42
5.176369,0.510000,-0.090000,-0.841000,-34.336000,159.053000,-30.183000,29.38
5.186057,0.478000,0.013000,-0.821000,-33.817000,194.656000,-32.931000,29.47
5.195996,0.447000,0.011000,-0.835000,-31.847000,230.137000,-34.244000,29.47
5.206169,0.509000,-0.045000,-0.873000,-31.908000,257.542000,-35.939000,29.42
5.216075,0.442000,-0.090000,-0.870000,-30.595000,288.061000,-43.084000,29.52
5.226019,0.433000,-0.215000,-0.846000,-32.580000,299.618000,-65.328000,29.38
5.235950,0.476000,-0.286000,-0.912000,-42.870000,317.679000,-80.916000,29.47
5.245978,0.968000,-0.358000,-1.138000,0.504000,305.450000,-95.069000,29.42
5.256220,1.118000,-0.579000,-1.413000,48.031000,304.550000,-102.977000,29.42
5.266418,1.244000,-0.659000,-1.436000,54.550000,354.947000,-113.634000,29.47
5.276154,1.833000,-0.450000,-2.166000,64.733000,410.748000,-119.924000,29.47
5.286150,2.407000,-0.789000,-2.705000,29.084000,440.855000,-147.145000,29.42
5.295939,2.199000,-0.350000,-2.440000,2.550000,431.160000,-179.466000,29.52
5.306213,2.263000,-0.413000,-3.373000,16.718000,380.748000,-171.160000,29.38
5.316166,-0.933000,-2.673000,-3.646000,44.794000,199.786000,-92.550000,29.47
5.326154,0.503000,-3.713000,-3.422000,-38.855000,50.305000,-13.328000,29.42
5.336170,-0.458000,-2.513000,-3.136000,-136.977000,-80.779000,-14.534000,29.42
5.346155,-1.604000,-0.399000,-3.161000,-259.817000,25.145000,-22.000000,29.42
5.356338,-0.179000,-1.096000,-2.438000,-103.252000,-426.366000,-31.252000,29.47
5.371120,-0.558000,-0.670000,-2.121000,-78.550000,-259.298000,-28.061000,29.47
5.377430,-0.610000,-0.803000,-1.662000,-40.626000,-262.229000,-33.863000,29.52
5.386536,-0.553000,-0.943000,-1.109000,-16.901000,-218.794000,-43.542000,29.57
5.399946,-0.156000,-0.897000,-0.937000,-3.679000,-267.038000,-51.282000,29.47
5.405669,0.116000,-0.837000,-0.867000,21.328000,-316.000000,-42.458000,29.38
5.415704,0.373000,-0.845000,-0.743000,51.985000,-322.473000,-23.664000,29.42
5.425758,0.488000,-0.882000,-0.735000,77.435000,-303.160000,0.198000,29.42
5.435758,0.628000,-0.933000,-0.697000,88.992000,-264.595000,26.779000,29.57
5.445804,0.689000,-0.939000,-0.700000,97.634000,-241.069000,53.252000,29.38
5.455761,0.797000,-0.833000,-0.789000,105.267000,-218.855000,78.000000,29.42
5.465795,0.901000,-0.744000,-0.929000,114.504000,-208.626000,101.145000,29.42
5.475860,1.050000,-0.659000,-1.097000,125.740000,-203.038000,121.084000,29.47
5.486023,1.259000,-0.572000,-1.219000,131.115000,-206.244000,136.473000,29.38
5.495936,2.195000,-1.545000,-0.838000,-50.061000,-176.840000,210.427000,29.33
5.505873,1.548000,0.690000,-1.979000,102.489000,-175.542000,141.496000,29.42
5.515895,1.695000,0.344000,-1.394000,183.863000,-192.031000,193.160000,29.47
5.525975,1.479000,-0.102000,-0.923000,196.397000,-180.748000,166.824000,29.47
5.536089,1.641000,-0.591000,-0.749000,164.275000,-149.466000,155.328000,29.42
5.546026,1.985000,-0.072000,-1.056000,73.328000,-157.115000,152.427000,29.38
5.556129,2.073000,0.178000,-1.084000,91.069000,-212.489000,151.802000,29.47
5.566071,2.099000,0.469000,-1.002000,112.153000,-222.076000,150.137000,29.38
5.576155,2.229000,0.547000,-0.792000,132.809000,-193.557000,136.595000,29.42
5.586190,2.384000,0.553000,-0.641000,139.328000,-161.130000,117.008000,29.33
5.596092,2.554000,0.506000,-0.606000,119.924000,-143.878000,98.489000,29.47
5.606181,2.620000,0.538000,-0.284000,115.527000,-117.954000,89.069000,29.47
5.616086,2.645000,0.727000,-0.188000,122.595000,-125.557000,78.977000,29.42
5.626201,2.396000,1.271000,0.020000,31.069000,-44.641000,111.374000,29.42
5.636118,3.270000,0.868000,0.589000,139.511000,-85.725000,79.847000,29.38
5.646218,2.501000,0.923000,0.039000,149.695000,-57.847000,83.328000,29.57
5.656283,2.532000,0.842000,0.631000,124.031000,-26.672000,81.756000,29.47
5.666362,2.609000,0.991000,1.219000,167.420000,-44.260000,51.374000,29.42
5.676179,2.253000,0.790000,0.401000,55.664000,32.824000,56.351000,29.42
5.686540,2.249000,0.872000,0.432000,29.802000,18.260000,37.481000,29.38
5.696252,2.112000,0.672000,0.330000,-50.321000,39.496000,34.137000,29.38
5.706337,2.590000,0.071000,0.779000,-157.588000,100.901000,11.542000,29.42
5.716301,0.762000,1.614000,0.126000,-214.275000,44.260000,-50.885000,29.52
5.726278,0.201000,0.662000,-1.661000,-129.481000,51.237000,-9.618000,29.38
5.736245,0.140000,-0.245000,-1.738000,-110.153000,17.267000,-18.168000,29.47
5.746105,-0.256000,-0.095000,-0.533000,-124.183000,14.290000,-61.130000,29.52
5.756184,-0.186000,0.941000,-0.676000,-32.962000,-4.916000,-116.870000,29.42
5.766154,0.956000,0.716000,-1.542000,-29.863000,76.397000,-136.611000,29.47
5.776019,2.265000,0.382000,-3.026000,8.534000,233.588000,-118.153000,29.47
5.785969,1.866000,-0.058000,-1.797000,-60.290000,84.122000,-91.679000,29.42
5.795869,0.665000,-0.456000,-1.095000,-19.679000,65.084000,-66.168000,29.42
5.805761,0.722000,-0.349000,-1.199000,-8.427000,72.840000,-33.145000,29.47
5.815715,0.736000,-0.225000,-1.127000,-8.397000,48.290000,-25.542000,29.38
5.825718,0.848000,-0.718000,-0.860000,-15.649000,25.282000,-18.412000,29.47
5.835832,0.677000,-0.861000,-0.657000,-37.847000,52.626000,-13.802000,29.33
5.845723,0.579000,-0.568000,-0.810000,-44.656000,21.832000,-18.000000,29.42
5.855712,0.481000,-0.525000,-0.781000,-51.725000,16.046000,-24.244000,29.47
5.865739,0.417000,-0.610000,-0.729000,-57.649000,15.802000,-31.008000,29.38
5.875764,0.369000,-0.459000,-0.775000,-66.000000,18.443000,-36.931000,29.42
5.885832,0.329000,-0.353000,-0.812000,-76.473000,25.832000,-42.550000,29.42
5.895838,0.440000,-0.261000,-0.907000,-76.214000,30.702000,-43.267000,29.38
5.905803,0.430000,-0.125000,-0.905000,-74.809000,29.267000,-42.229000,29.38
5.915826,0.432000,-0.220000,-0.946000,-76.977000,24.031000,-40.992000,29.42
5.925940,0.594000,-0.123000,-1.023000,-68.595000,16.580000,-38.885000,29.42
5.935937,0.484000,-0.279000,-0.858000,-50.901000,-8.901000,-37.511000,29.47
5.945980,0.519000,-0.241000,-0.863000,-47.160000,-2.504000,-38.611000,29.47
5.955929,0.522000,-0.187000,-0.928000,-49.435000,6.290000,-41.023000,29.42
5.965994,0.495000,-0.240000,-0.820000,-45.038000,17.634000,-44.198000,29.47
5.976084,0.573000,-0.149000,-0.873000,-38.412000,6.229000,-43.160000,29.47
5.986096,0.539000,-0.080000,-0.856000,-33.084000,3.725000,-35.863000,29.47
5.996027,0.533000,-0.060000,-0.890000,-29.435000,7.939000,-30.687000,29.42
6.006009,0.485000,-0.078000,-0.865000,-24.855000,13.450000,-27.359000,29.52
6.016108,0.493000,-0.177000,-0.871000,-23.802000,15.466000,-24.290000,29.57
6.026170,0.483000,-0.137000,-0.857000,-22.351000,21.985000,-23.069000,29.47
6.036152,0.511000,-0.099000,-0.872000,-20.595000,29.695000,-22.076000,29.47
6.046042,0.527000,-0.084000,-0.880000,-17.450000,28.901000,-20.214000,29.42
6.056134,0.492000,-0.071000,-0.892000,-11.130000,29.389000,-23.176000,29.42
6.066251,0.581000,-0.390000,-0.802000,-16.534000,38.015000,-22.046000,29.38
6.076100,0.525000,-0.190000,-0.805000,-16.092000,45.588000,-22.290000,29.47
6.086242,0.499000,-0.115000,-0.872000,-18.122000,47.863000,-21.481000,29.42
6.096147,0.498000,-0.146000,-0.854000,-19.115000,56.153000,-21.252000,29.42
6.106244,0.515000,-0.120000,-0.891000,-20.550000,68.794000,-20.061000,29.38
6.116203,0.547000,-0.194000,-0.896000,-23.847000,83.344000,-18.046000,29.38
6.126223,0.501000,-0.169000,-0.877000,-25.313000,100.626000,-22.076000,29.42
6.136217,0.494000,-0.160000,-0.877000,-34.397000,137.740000,-21.496000,29.42
6.146203,0.483000,-0.148000,-0.851000,-38.427000,171.069000,-25.298000,29.38
6.156262,0.403000,-0.066000,-0.879000,-39.878000,200.672000,-35.603000,29.47
6.166329,0.466000,-0.051000,-0.802000,-41.115000,232.366000,-48.489000,29.33
6.176413,0.560000,-0.033000,-0.859000,-46.336000,254.153000,-53.710000,29.47
6.186209,0.558000,-0.030000,-0.856000,-38.626000,258.397000,-61.618000,29.38
6.196365,0.460000,-0.127000,-0.897000,-34.702000,262.947000,-75.954000,29.47
6.206323,0.444000,-0.236000,-0.838000,-44.489000,268.153000,-95.374000,29.42
6.216323,0.817000,-0.131000,-1.031000,-24.580000,261.863000,-105.511000,29.42
6.226302,1.101000,-0.368000,-1.272000,35.969000,275.130000,-115.237000,29.38
6.236442,1.323000,-0.605000,-1.327000,36.122000,316.046000,-123.603000,29.38
6.246413,1.691000,-0.467000,-1.830000,29.618000,375.664000,-127.817000,29.42
6.256432,2.111000,-0.533000,-2.102000,18.901000,426.809000,-149.634000,29.42
6.266396,2.186000,-0.763000,-2.349000,-27.237000,438.336000,-186.351000,29.47
6.276430,2.297000,-0.605000,-2.735000,-60.641000,397.908000,-192.504000,29.38
6.286222,0.028000,-1.582000,-3.679000,-25.634000,274.198000,-147.725000,29.38
6.296605,0.560000,-4.000000,-3.549000,-28.794000,129.679000,3.557000,29.42
6.306510,0.694000,-3.908000,-3.345000,-97.282000,-31.115000,54.000000,29.52
6.316483,-0.916000,-1.784000,-3.273000,-273.985000,20.382000,32.611000,29.38
6.326495,-0.702000,-1.237000,-1.966000,-194.443000,-332.550000,53.603000,29.38
6.336160,-0.868000,-0.515000,-2.136000,-128.626000,-217.221000,31.527000,29.42
6.346396,-0.683000,-0.381000,-2.012000,-43.252000,-163.603000,15.450000,29.42
6.356517,-0.418000,-0.612000,-1.597000,8.779000,-166.137000,-11.267000,29.38
6.366472,-0.161000,-0.763000,-1.235000,28.565000,-258.779000,-29.145000,29.47
6.376420,0.055000,-0.692000,-1.035000,47.221000,-304.733000,-42.336000,29.42
6.386352,0.220000,-0.488000,-0.827000,63.267000,-285.496000,-41.954000,29.47
6.396488,0.592000,-0.586000,-0.888000,98.840000,-260.977000,-30.122000,29.38
6.406439,0.696000,-0.672000,-0.829000,125.802000,-268.122000,-5.496000,29.38
6.416450,0.778000,-0.780000,-0.746000,135.679000,-265.328000,18.000000,29.42
6.426544,0.838000,-0.787000,-0.797000,134.305000,-249.237000,39.511000,29.42
6.436247,0.903000,-0.667000,-0.886000,131.878000,-227.191000,59.710000,29.47
6.446576,0.966000,-0.518000,-1.046000,137.267000,-213.817000,79.924000,29.38
6.456468,1.064000,-0.401000,-1.194000,147.252000,-205.847000,99.298000,29.52
6.466474,1.054000,-0.108000,-1.429000,168.992000,-209.649000,113.328000,29.42
6.476288,1.009000,-0.105000,-1.209000,171.756000,-208.855000,122.168000,29.38
6.486167,1.258000,0.128000,-1.285000,159.130000,-174.321000,120.015000,29.47
6.496447,1.327000,0.183000,-1.516000,178.901000,-218.626000,123.176000,29.33
6.506486,1.350000,0.268000,-1.530000,179.053000,-221.725000,124.382000,29.42
6.516759,1.491000,0.323000,-1.529000,170.931000,-208.046000,119.847000,29.47
6.526572,1.628000,0.376000,-1.429000,166.611000,-209.679000,115.405000,29.47
6.536542,1.725000,0.468000,-1.284000,163.817000,-217.191000,109.832000,29.42
6.546519,1.872000,0.567000,-1.114000,165.573000,-216.015000,102.214000,29.42
6.556600,2.040000,0.606000,-0.936000,166.977000,-195.924000,98.275000,29.42
6.566685,2.239000,0.580000,-0.839000,167.924000,-173.969000,100.565000,29.38
6.576732,2.386000,0.604000,-0.693000,164.000000,-151.115000,112.718000,29.38
6.586497,2.513000,0.606000,-0.493000,157.191000,-135.588000,131.725000,29.42
6.596275,2.585000,0.608000,-0.226000,144.305000,-114.198000,152.519000,29.47
6.606186,2.569000,0.789000,0.080000,124.794000,-86.931000,165.847000,29.38
6.615996,2.520000,0.949000,0.297000,106.382000,-50.641000,168.550000,29.38
6.625967,2.500000,1.040000,0.488000,89.191000,-21.298000,160.534000,29.42
6.636050,2.395000,1.194000,0.547000,74.580000,26.061000,145.099000,29.42
6.646036,2.439000,1.265000,0.503000,43.145000,42.580000,122.321000,29.47
6.656027,2.296000,1.131000,0.508000,-226.198000,149.023000,144.260000,29.38
6.666029,2.028000,-0.200000,0.096000,95.634000,-92.840000,51.252000,29.33
6.676025,2.380000,1.031000,0.995000,-163.802000,127.176000,17.802000,29.42
6.686137,2.338000,1.744000,0.450000,-190.321000,111.634000,-19.389000,29.38
6.696131,0.510000,0.486000,-0.771000,-98.321000,229.496000,-19.176000,29.28
6.705981,0.989000,-0.032000,-2.257000,-100.977000,29.603000,-15.756000,29.33
6.716264,-1.016000,0.319000,-2.107000,-68.611000,117.527000,-38.076000,29.52
6.726129,-0.218000,1.160000,-0.459000,-34.687000,63.237000,-114.031000,29.42
6.736150,-0.193000,0.925000,-1.429000,6.687000,160.412000,-152.656000,29.47
6.745978,1.896000,0.236000,-2.947000,14.779000,155.008000,-128.107000,29.52
6.756229,2.002000,-0.502000,-2.108000,-2.076000,83.145000,-123.405000,29.42
6.766172,1.479000,-0.755000,-1.415000,-23.863000,-9.130000,-95.023000,29.47
6.776190,0.646000,-0.173000,-0.845000,-32.550000,129.344000,-53.573000,29.38
6.786206,0.827000,-0.050000,-1.533000,-17.252000,58.504000,-45.634000,29.38
6.796127,0.972000,-0.676000,-0.954000,-31.511000,-16.427000,-35.664000,29.42
6.806319,0.673000,-0.898000,-0.218000,-56.779000,33.282000,-23.969000,29.47
6.816167,0.607000,-0.482000,-0.898000,-62.229000,-6.290000,-26.809000,29.38
6.826430,0.542000,-0.438000,-0.878000,-66.687000,-2.000000,-29.527000,29.38
6.836262,0.478000,-0.597000,-0.751000,-69.649000,3.496000,-33.389000,29.33
6.846374,0.391000,-0.431000,-0.819000,-77.618000,6.687000,-38.672000,29.42
6.856246,0.372000,-0.319000,-0.871000,-79.740000,6.519000,-41.847000,29.38
6.866195,0.406000,-0.288000,-0.860000,-80.382000,11.817000,-42.015000,29.47
6.876254,0.463000,-0.240000,-0.911000,-82.015000,23.023000,-39.511000,29.42
6.886279,0.532000,-0.094000,-1.017000,-61.237000,-17.237000,-34.519000,29.42
6.896213,0.498000,-0.008000,-0.998000,-44.473000,-3.191000,-24.870000,29.47
6.906099,0.493000,-0.262000,-0.859000,-38.305000,9.863000,-22.000000,29.38
6.916333,0.472000,-0.257000,-0.855000,-40.015000,22.779000,-23.985000,29.52
6.926339,0.469000,-0.262000,-0.830000,-38.046000,25.557000,-25.924000,29.52
6.936165,0.491000,-0.247000,-0.833000,-31.847000,14.595000,-28.290000,29.38
6.946545,0.495000,-0.225000,-0.857000,-29.542000,10.962000,-30.672000,29.47
6.956481,0.483000,-0.249000,-0.875000,-26.947000,6.382000,-32.351000,29.42
6.966450,0.476000,-0.172000,-0.871000,-25.267000,11.008000,-32.809000,29.47
6.976506,0.478000,-0.134000,-0.874000,-24.504000,19.328000,-30.137000,29.47
6.986254,0.489000,-0.090000,-0.898000,-22.412000,22.809000,-27.573000,29.38
6.996450,0.486000,-0.094000,-0.864000,-19.099000,24.992000,-25.252000,29.33
7.006364,0.473000,-0.106000,-0.869000,-18.489000,26.962000,-23.511000,29.42
7.016004,0.475000,-0.082000,-0.878000,-18.046000,32.840000,-21.237000,29.47
7.026291,0.508000,-0.124000,-0.882000,-17.237000,41.481000,-19.557000,29.38
7.036277,0.503000,-0.109000,-0.862000,-14.763000,37.481000,-19.725000,29.42
7.045995,0.364000,0.227000,-0.955000,-3.481000,35.267000,-30.137000,29.42
7.056061,0.454000,-0.182000,-0.822000,-16.611000,44.901000,-24.244000,29.47
7.066106,0.522000,-0.188000,-0.798000,-16.031000,49.145000,-23.939000,29.38
7.076296,0.476000,-0.177000,-0.874000,-18.275000,60.046000,-22.916000,29.33
7.086379,0.484000,-0.124000,-0.894000,-19.084000,70.977000,-22.260000,29.42
7.096343,0.534000,-0.140000,-0.908000,-19.802000,85.298000,-20.992000,29.52
7.106338,0.498000,-0.170000,-0.908000,-24.519000,104.947000,-19.313000,29.38
7.116330,0.538000,-0.146000,-0.881000,-26.931000,130.733000,-20.382000,29.47
7.126221,0.506000,-0.109000,-0.865000,-28.260000,158.214000,-22.382000,29.42
7.136153,0.480000,-0.008000,-0.843000,-32.000000,187.618000,-25.634000,29.42
7.145942,0.427000,-0.071000,-0.823000,-36.076000,214.061000,-36.153000,29.47
7.155985,0.485000,-0.024000,-0.814000,-45.252000,239.008000,-41.786000,29.47
7.165823,0.523000,0.018000,-0.797000,-41.328000,255.542000,-45.206000,29.42
7.178807,0.613000,0.024000,-0.829000,-39.756000,282.031000,-51.008000,29.38
7.189214,0.500000,-0.195000,-0.834000,-54.626000,296.275000,-66.504000,29.47
7.195684,0.666000,-0.192000,-0.829000,-72.534000,316.931000,-89.649000,29.38
7.207040,0.440000,-0.442000,-1.533000,-100.473000,331.511000,-106.397000,29.42
7.215770,1.137000,-0.170000,-0.907000,-68.137000,315.939000,-142.855000,29.42
7.225811,1.350000,-0.383000,-1.145000,-92.382000,336.382000,-155.282000,29.47
7.235839,1.896000,-0.525000,-1.609000,-65.160000,417.542000,-159.695000,29.47
7.245882,2.642000,-0.650000,-2.460000,1.084000,404.840000,-139.924000,29.42
7.256045,2.226000,-0.699000,-2.127000,14.733000,410.595000,-160.962000,29.33
7.266270,2.554000,-0.785000,-2.332000,-63.069000,409.588000,-182.305000,29.47
7.278755,1.905000,-0.743000,-2.642000,-115.344000,329.405000,-187.802000,29.38
7.286555,0.554000,-1.610000,-3.305000,-102.565000,173.618000,-141.374000,29.42
7.296507,0.697000,-2.689000,-3.531000,-8.733000,137.878000,-22.168000,29.42
7.306793,1.613000,-2.550000,-4.000000,-122.397000,28.000000,16.824000,29.38
7.316341,-0.493000,-2.525000,-1.906000,-137.710000,-232.885000,17.359000,29.38
7.326080,-0.552000,-1.160000,-1.576000,-146.168000,-301.588000,24.870000,29.42
7.336098,-0.496000,-0.591000,-1.722000,-104.733000,-199.328000,32.916000,29.42
7.346049,-0.301000,-0.514000,-1.700000,-11.786000,-178.977000,41.832000,29.38
7.356029,-0.340000,-0.637000,-1.340000,40.305000,-140.260000,47.252000,29.38
7.365959,-0.049000,-0.754000,-1.247000,57.802000,-215.450000,39.847000,29.33
7.376080,0.039000,-0.723000,-1.036000,42.672000,-260.427000,27.267000,29.42
7.386284,0.173000,-0.474000,-1.045000,36.168000,-276.656000,14.305000,29.47
7.396153,0.201000,-0.244000,-0.968000,57.359000,-260.611000,10.763000,29.47
7.406278,0.366000,-0.167000,-1.006000,88.931000,-264.931000,14.534000,29.42
7.416193,0.496000,-0.228000,-0.983000,109.985000,-258.580000,22.885000,29.33
7.426366,0.584000,-0.335000,-0.945000,122.794000,-266.290000,32.641000,29.38
7.436181,0.641000,-0.389000,-0.961000,127.115000,-271.267000,41.969000,29.47
7.446201,0.720000,-0.351000,-1.023000,128.076000,-273.023000,53.557000,29.33
7.456450,0.752000,-0.220000,-1.127000,132.748000,-265.267000,67.206000,29.42
7.466448,0.826000,-0.158000,-1.226000,145.771000,-254.046000,81.573000,29.47
7.476170,0.985000,-0.176000,-1.333000,160.321000,-249.679000,96.702000,29.47
7.486080,1.110000,-0.079000,-1.995000,167.634000,-250.046000,114.244000,29.38
7.496005,1.407000,-0.121000,-1.466000,157.008000,-219.527000,138.412000,29.42
7.505936,1.594000,-0.118000,-1.332000,163.282000,-267.893000,159.344000,29.33
7.515979,1.645000,-0.040000,-1.230000,149.863000,-274.183000,174.244000,29.38
7.525834,1.864000,0.105000,-1.259000,124.229000,-260.870000,185.954000,29.47
7.536007,2.020000,0.263000,-1.271000,109.191000,-238.687000,192.229000,29.52
7.545710,2.276000,0.499000,-1.343000,99.389000,-234.076000,188.076000,29.47
7.555742,2.418000,0.612000,-1.102000,103.298000,-206.061000,180.641000,29.38
7.565721,2.783000,0.759000,-0.967000,103.786000,-222.214000,163.649000,29.47
7.575707,2.878000,0.837000,-0.809000,95.695000,-205.328000,149.847000,29.42
7.585844,3.258000,0.922000,-0.653000,92.580000,-198.565000,138.809000,29.42
7.595732,3.244000,0.686000,-0.069000,83.053000,-210.504000,131.618000,29.47
7.605711,3.015000,0.969000,0.326000,56.687000,-134.366000,126.931000,29.38
7.620509,2.954000,1.098000,0.777000,63.878000,-146.382000,120.885000,29.42
7.625646,3.489000,1.482000,1.668000,41.725000,-63.374000,105.252000,29.42
7.637400,2.662000,1.566000,1.176000,66.260000,-60.489000,73.481000,29.47
7.646479,2.893000,1.605000,1.611000,132.794000,-56.702000,18.702000,29.38
7.656544,2.671000,1.397000,1.145000,50.351000,12.565000,11.176000,29.42
7.666482,2.448000,1.306000,1.522000,-47.527000,66.015000,-15.740000,29.42
7.676279,0.218000,0.664000,0.013000,-158.641000,110.015000,-5.771000,29.47
7.686331,1.272000,0.411000,-1.686000,4.580000,152.840000,-33.634000,29.47
7.696330,0.191000,-0.461000,-1.973000,-81.481000,85.298000,-31.878000,29.42
7.706486,0.139000,-0.842000,-0.562000,-79.282000,6.458000,-80.473000,29.33
7.716525,-0.055000,0.010000,0.159000,31.679000,54.962000,-89.191000,29.38
7.726287,0.731000,-0.057000,0.011000,37.099000,250.687000,-72.397000,29.47
7.736446,1.608000,0.747000,-2.238000,66.992000,215.420000,-69.557000,29.42
7.746417,1.074000,0.924000,-2.088000,10.809000,222.015000,-78.962000,29.52
7.756293,1.353000,0.290000,-2.428000,15.237000,61.939000,-97.344000,29.47
7.766428,-0.300000,-0.948000,0.181000,90.015000,436.473000,-70.962000,29.47
7.776380,0.954000,-1.126000,-0.872000,-26.397000,4.061000,-44.290000,29.38
7.786461,0.660000,-0.284000,-0.850000,-24.962000,39.130000,-34.534000,29.42
7.796172,0.779000,-0.226000,-1.104000,-33.847000,10.947000,-30.504000,29.42
7.806269,0.809000,-0.734000,-0.745000,-38.107000,28.519000,-21.466000,29.47
7.816315,0.601000,-0.581000,-0.961000,-62.015000,61.771000,-20.550000,29.38
7.826325,0.553000,-0.301000,-0.995000,-43.603000,-13.374000,-23.588000,29.42
7.836298,0.455000,-0.371000,-0.867000,-44.183000,6.595000,-22.901000,29.42
7.846340,0.389000,-0.416000,-0.802000,-49.206000,17.282000,-25.725000,29.38
7.856273,0.328000,-0.321000,-0.870000,-55.313000,26.107000,-29.649000,29.47
7.866170,0.416000,-0.192000,-0.942000,-53.053000,17.924000,-31.252000,29.42
7.876322,0.474000,-0.174000,-0.885000,-45.496000,18.794000,-28.504000,29.52
7.886161,0.432000,-0.174000,-0.942000,-37.710000,4.977000,-24.992000,29.47
7.896345,0.516000,-0.168000,-0.948000,-29.145000,9.435000,-21.527000,29.38
7.906291,0.508000,-0.266000,-0.883000,-24.168000,12.061000,-20.427000,29.42
7.916269,0.432000,-0.263000,-0.830000,-15.527000,19.496000,-19.969000,29.38
7.926271,0.452000,-0.178000,-0.815000,-16.397000,-0.382000,-22.061000,29.38
7.936349,0.554000,-0.253000,-0.863000,-21.618000,25.405000,-21.313000,29.47
7.946738,0.491000,-0.205000,-0.839000,-19.649000,14.198000,-20.947000,29.33
7.958848,0.497000,-0.232000,-0.875000,-21.313000,11.191000,-21.237000,29.42
7.968539,0.471000,-0.201000,-0.832000,-22.519000,13.435000,-20.916000,29.47
7.975764,0.447000,-0.180000,-0.860000,-24.916000,16.763000,-22.031000,29.38
7.986202,0.496000,-0.167000,-0.874000,-24.290000,15.893000,-22.290000,29.42
7.995681,0.511000,-0.155000,-0.848000,-21.527000,20.046000,-20.641000,29.42
8.005732,0.486000,-0.145000,-0.859000,-19.664000,21.725000,-20.168000,29.38
8.015726,0.506000,-0.144000,-0.861000,-17.664000,22.061000,-19.740000,29.47
8.025751,0.505000,-0.096000,-0.879000,-15.740000,26.519000,-17.939000,29.42
8.035860,0.517000,-0.167000,-0.852000,-13.618000,29.924000,-16.870000,29.42
8.045787,0.483000,-0.155000,-0.841000,-12.198000,30.641000,-17.099000,29.47
8.055808,0.498000,-0.191000,-0.821000,-11.008000,31.160000,-18.351000,29.47
8.065807,0.432000,0.263000,-0.978000,3.405000,33.985000,-28.504000,29.47
8.075887,0.485000,-0.089000,-0.851000,-12.366000,42.183000,-26.702000,29.42
8.085965,0.485000,-0.342000,-0.819000,-16.519000,46.275000,-26.733000,29.42
8.095921,0.552000,-0.170000,-0.876000,-23.359000,57.863000,-29.069000,29.47
8.105951,0.528000,-0.228000,-0.878000,-28.840000,68.534000,-29.069000,29.38
8.115954,0.487000,-0.206000,-0.895000,-29.695000,82.534000,-31.344000,29.42
8.125972,0.519000,-0.212000,-0.900000,-34.580000,103.130000,-31.969000,29.47
8.135940,0.567000,-0.136000,-0.871000,-35.664000,118.855000,-31.160000,29.47
8.146026,0.514000,-0.074000,-0.863000,-38.305000,149.527000,-31.450000,29.47
8.156105,0.466000,-0.025000,-0.847000,-37.847000,174.733000,-34.962000,29.52
8.165941,0.401000,-0.012000,-0.831000,-36.031000,204.534000,-41.969000,29.33
8.175912,0.481000,0.049000,-0.834000,-33.802000,222.626000,-45.130000,29.38
8.186212,0.481000,0.017000,-0.855000,-30.244000,245.084000,-45.038000,29.47
8.196185,0.560000,-0.018000,-0.830000,-23.069000,257.038000,-49.405000,29.42
8.206213,0.423000,-0.104000,-0.862000,-31.160000,273.603000,-62.565000,29.42
8.216227,0.572000,-0.220000,-0.760000,-55.618000,291.450000,-82.321000,29.47
8.226143,0.698000,-0.171000,-0.846000,-70.229000,306.290000,-101.649000,29.47
8.236323,1.096000,-0.243000,-0.938000,-67.420000,331.099000,-112.076000,29.42
8.246101,1.367000,-0.505000,-1.399000,-18.260000,345.725000,-101.084000,29.42
8.256146,1.725000,-0.429000,-1.804000,54.382000,368.763000,-87.664000,29.38
8.266205,2.259000,-0.384000,-2.173000,64.672000,388.076000,-84.855000,29.38
8.276139,2.187000,-0.108000,-1.963000,54.351000,413.115000,-112.076000,29.33
8.286162,2.249000,-0.336000,-2.196000,1.221000,389.588000,-141.511000,29.47
8.296388,1.227000,-0.562000,-2.470000,-26.397000,357.069000,-140.489000,29.38
8.306206,-0.404000,-1.525000,-3.786000,-0.916000,152.382000,-94.137000,29.38
8.316156,0.521000,-2.333000,-3.981000,-9.130000,95.664000,-38.947000,29.42
8.326108,0.426000,-2.351000,-3.992000,-109.130000,-138.763000,-25.313000,29.42
8.336341,-1.132000,-1.631000,-1.863000,-162.748000,-244.366000,-36.580000,29.38
8.346228,-0.808000,-0.949000,-1.696000,-159.450000,-205.008000,-46.107000,29.38
8.356209,-0.416000,-0.655000,-1.943000,-103.817000,-231.313000,-47.237000,29.33
8.366228,-0.281000,-0.734000,-1.801000,-45.176000,-225.298000,-40.977000,29.42
8.376224,-0.118000,-0.948000,-1.541000,-5.466000,-257.786000,-38.656000,29.47
8.386200,0.086000,-1.033000,-1.238000,5.695000,-292.870000,-39.328000,29.38
8.396106,0.287000,-0.808000,-1.018000,16.885000,-314.840000,-39.939000,29.42
8.406242,0.449000,-0.635000,-0.915000,40.534000,-311.710000,-32.061000,29.42
8.416260,0.562000,-0.547000,-0.862000,74.733000,-292.977000,-19.038000,29.38
8.425981,0.684000,-0.554000,-0.880000,109.496000,-277.252000,-6.107000,29.38
8.436034,0.790000,-0.575000,-0.890000,135.496000,-268.290000,5.847000,29.61
8.446104,0.923000,-0.631000,-0.969000,149.389000,-266.916000,18.321000,29.42
8.456157,1.692000,-0.458000,-0.923000,156.504000,-238.947000,38.611000,29.47
8.466065,1.407000,-0.379000,-1.094000,153.313000,-250.489000,47.420000,29.38
8.476095,1.437000,-0.092000,-0.857000,151.649000,-245.847000,59.099000,29.42
8.486164,1.287000,0.026000,-0.637000,152.885000,-221.328000,61.756000,29.52
8.496132,1.166000,0.151000,-0.958000,157.435000,-207.710000,67.130000,29.47
8.506034,0.926000,-0.014000,-1.241000,174.641000,-208.504000,74.275000,29.38
8.516106,1.404000,0.027000,-1.229000,202.656000,-211.328000,89.252000,29.42
8.526093,1.387000,0.005000,-1.046000,194.244000,-200.137000,96.519000,29.42
8.536093,1.382000,-0.004000,-0.945000,175.863000,-183.328000,104.061000,29.42
8.546053,1.555000,0.157000,-0.972000,160.244000,-165.969000,109.893000,29.57
8.556126,1.785000,0.285000,-0.921000,152.550000,-153.573000,118.595000,29.47
8.566132,1.895000,0.397000,-0.831000,154.412000,-144.489000,126.015000,29.42
8.576204,2.037000,0.537000,-0.748000,158.153000,-133.328000,131.603000,29.42
8.586069,2.232000,0.668000,-0.703000,158.992000,-121.511000,133.710000,29.38
8.596275,2.252000,0.798000,-0.713000,156.458000,-106.840000,140.076000,29.38
8.606158,2.377000,0.884000,-0.534000,149.679000,-82.779000,146.534000,29.42
8.616129,2.389000,1.070000,-0.256000,143.481000,-70.427000,154.901000,29.33
8.626164,2.359000,1.124000,-0.093000,122.397000,-57.802000,163.374000,29.47
8.636143,2.402000,1.519000,-0.181000,79.710000,-85.771000,155.191000,29.38
8.646008,2.345000,1.113000,0.240000,66.672000,-19.084000,127.389000,29.33
8.656048,2.473000,1.226000,0.172000,18.137000,-32.000000,102.305000,29.47
8.665834,2.330000,1.320000,0.280000,-17.542000,-22.351000,78.229000,29.38
8.675814,2.453000,1.409000,0.588000,-101.374000,27.893000,37.466000,29.38
8.685707,2.219000,1.568000,1.145000,-154.824000,74.931000,19.252000,29.42
8.695695,2.162000,2.177000,0.964000,-127.328000,118.443000,16.916000,29.52
8.705786,0.623000,0.736000,-0.861000,-76.275000,170.656000,15.878000,29.47
8.715710,0.457000,0.309000,-2.658000,-85.237000,110.885000,-30.260000,29.38
8.725757,-0.118000,0.312000,-1.898000,-38.687000,102.443000,-77.298000,29.42
8.735793,-0.090000,0.316000,-0.738000,-15.267000,141.847000,-115.466000,29.42
8.745710,1.385000,0.376000,-1.425000,8.855000,179.420000,-113.573000,29.47
8.755687,2.210000,-0.150000,-2.415000,-34.076000,86.305000,-110.351000,29.47
8.765689,1.128000,-0.259000,-1.213000,-70.260000,158.947000,-78.229000,29.52
8.775777,0.851000,-0.498000,-1.049000,-35.527000,65.939000,-58.092000,29.42
8.785843,0.730000,-0.144000,-1.048000,-32.870000,34.168000,-38.656000,29.38
8.795786,0.547000,-0.513000,-0.666000,-35.679000,29.191000,-34.305000,29.38
8.805716,0.680000,-0.943000,-0.674000,-60.687000,57.298000,-34.061000,29.33
8.815717,0.587000,-0.629000,-0.880000,-74.855000,57.481000,-42.214000,29.42
8.825774,0.668000,-0.380000,-1.015000,-71.069000,21.252000,-47.420000,29.38
8.835827,0.662000,-0.493000,-0.925000,-77.786000,5.786000,-50.565000,29.38
8.845812,0.520000,-0.308000,-0.884000,-74.763000,2.046000,-51.740000,29.38
8.855874,0.553000,-0.256000,-0.958000,-72.977000,9.328000,-52.473000,29.33
8.865782,0.534000,-0.013000,-1.006000,-59.954000,1.557000,-48.687000,29.38
8.875909,0.375000,-0.132000,-0.788000,-28.366000,-7.634000,-42.366000,29.38
8.886021,0.498000,-0.087000,-0.895000,-36.260000,19.130000,-38.595000,29.38
8.896019,0.480000,-0.249000,-0.836000,-22.137000,-19.802000,-35.817000,29.42
8.905998,0.492000,-0.189000,-0.862000,-29.389000,-4.351000,-36.382000,29.52
8.915984,0.498000,-0.172000,-0.845000,-34.718000,8.580000,-35.313000,29.47
8.926113,0.543000,-0.161000,-0.865000,-37.069000,14.183000,-33.893000,29.38
8.935984,0.540000,-0.136000,-0.868000,-35.099000,17.573000,-32.504000,29.42
8.945994,0.560000,-0.101000,-0.867000,-30.473000,12.824000,-29.344000,29.42
8.956034,0.568000,-0.072000,-0.864000,-23.924000,11.298000,-24.229000,29.38
8.966116,0.540000,-0.098000,-0.854000,-24.534000,20.366000,-21.527000,29.47
8.976136,0.541000,-0.115000,-0.854000,-21.252000,12.977000,-20.840000,29.42
8.986064,0.519000,-0.108000,-0.865000,-19.603000,16.809000,-21.954000,29.42
8.996173,0.646000,-0.194000,-0.896000,-23.282000,20.076000,-21.847000,29.47
9.005999,0.502000,-0.046000,-0.822000,-17.710000,21.893000,-18.840000,29.47
9.016089,0.536000,-0.065000,-0.852000,-15.237000,23.099000,-15.817000,29.42
9.025947,0.536000,-0.069000,-0.847000,-13.542000,25.649000,-13.115000,29.47
9.036164,0.533000,-0.063000,-0.834000,-8.168000,15.099000,-10.519000,29.47
9.045960,0.537000,-0.081000,-0.853000,-8.855000,22.733000,-8.931000,29.47
9.056078,0.533000,-0.090000,-0.853000,-10.305000,24.672000,-8.397000,29.33
9.066031,0.533000,-0.096000,-0.850000,-8.489000,18.931000,-8.489000,29.52
9.076056,0.523000,-0.099000,-0.842000,-10.962000,26.611000,-8.183000,29.38
9.085903,0.522000,-0.112000,-0.839000,-10.427000,31.527000,-7.908000,29.38
9.096063,0.530000,-0.121000,-0.854000,-10.122000,33.221000,-7.908000,29.47
9.106010,0.514000,-0.146000,-0.849000,-13.725000,44.305000,-9.527000,29.42
9.116127,0.518000,-0.164000,-0.868000,-18.748000,56.580000,-11.221000,29.42
9.126029,0.527000,-0.147000,-0.871000,-21.252000,64.580000,-12.962000,29.38
9.136089,0.494000,-0.154000,-0.872000,-25.847000,82.168000,-16.137000,29.28
9.146046,0.501000,-0.122000,-0.863000,-30.672000,105.038000,-19.695000,29.33
9.156139,0.429000,-0.114000,-0.875000,-34.672000,121.847000,-26.107000,29.42
9.166083,0.426000,-0.082000,-0.842000,-40.870000,147.969000,-36.580000,29.38
9.175945,0.479000,0.017000,-0.846000,-35.374000,176.656000,-46.473000,29.47
9.186087,0.520000,0.011000,-0.913000,-23.344000,190.305000,-46.885000,29.42
9.196041,0.489000,0.053000,-0.880000,-21.863000,230.351000,-50.092000,29.42
9.206064,0.550000,-0.138000,-0.891000,-34.061000,239.389000,-63.008000,29.38
9.216057,0.532000,-0.064000,-0.873000,-32.504000,260.366000,-80.947000,29.47
9.226244,0.689000,-0.113000,-0.909000,-57.573000,291.557000,-110.229000,29.42
9.236274,0.813000,-0.318000,-1.053000,-72.412000,287.740000,-130.992000,29.47
9.246105,0.971000,-0.433000,-1.114000,-85.023000,337.374000,-148.672000,29.38
9.256076,1.374000,-0.487000,-1.456000,-76.000000,341.282000,-159.527000,29.47
9.266234,1.850000,-0.473000,-1.706000,-76.107000,367.008000,-162.321000,29.42
9.276108,2.109000,-0.218000,-1.874000,-75.618000,361.573000,-176.748000,29.42
9.286048,2.144000,-0.698000,-2.062000,-105.374000,340.244000,-199.649000,29.47
9.296220,1.968000,-0.679000,-2.017000,-111.374000,279.511000,-190.702000,29.47
9.306206,0.826000,-0.463000,-2.381000,-82.718000,152.458000,-150.977000,29.42
9.316191,0.035000,-1.571000,-4.000000,64.107000,21.557000,-26.916000,29.52
9.325972,0.590000,-2.211000,-2.846000,48.519000,-123.298000,-3.756000,29.47
9.336263,-1.071000,-2.061000,-0.383000,-35.466000,-118.550000,10.427000,29.47
9.346075,0.064000,-1.449000,-1.375000,-68.595000,-152.824000,33.359000,29.42
9.356157,0.056000,-1.126000,-1.709000,-41.802000,-164.015000,72.244000,29.42
9.366188,-0.007000,-0.965000,-1.492000,-15.191000,-162.870000,95.405000,29.47
9.376190,-0.075000,-0.890000,-1.165000,-10.412000,-191.420000,99.145000,29.38
9.386145,-0.055000,-0.661000,-0.931000,-19.740000,-222.061000,87.985000,29.33
9.396187,-0.001000,-0.368000,-0.876000,-20.305000,-243.985000,74.885000,29.38
9.406204,0.093000,-0.164000,-0.862000,2.595000,-246.947000,65.252000,29.47
9.416166,0.188000,-0.179000,-0.888000,32.137000,-238.794000,59.725000,29.38
9.426163,0.354000,-0.372000,-0.982000,60.244000,-238.626000,60.122000,29.42
9.436148,0.528000,-0.508000,-1.044000,76.137000,-245.359000,67.893000,29.42
9.446126,0.631000,-0.594000,-1.047000,80.321000,-255.176000,79.924000,29.28
9.455900,0.623000,-0.546000,-0.953000,85.786000,-251.191000,96.305000,29.38
9.465819,0.766000,-0.449000,-0.888000,96.000000,-242.473000,118.290000,29.33
9.475827,0.916000,-0.402000,-0.947000,113.099000,-225.618000,141.664000,29.42
9.485979,1.141000,-0.349000,-0.831000,122.000000,-213.802000,161.389000,29.47
9.495911,1.308000,-0.056000,-0.729000,140.198000,-200.519000,178.565000,29.38
9.505922,1.409000,0.221000,-0.717000,156.244000,-181.817000,185.893000,29.42
9.515875,1.634000,0.240000,-0.891000,153.924000,-153.221000,186.733000,29.42
9.525982,2.122000,0.212000,-1.179000,136.656000,-139.924000,185.481000,29.47
9.536057,2.417000,0.555000,-1.105000,111.893000,-140.504000,172.107000,29.47
9.545956,2.428000,0.979000,-0.627000,97.038000,-130.809000,148.366000,29.33
9.555984,2.423000,1.250000,-0.212000,97.985000,-140.107000,114.947000,29.33
9.565967,2.313000,1.136000,0.294000,101.496000,-109.710000,81.603000,29.38
9.576035,2.385000,1.032000,0.305000,84.504000,-55.893000,59.176000,29.47
9.586125,2.333000,1.079000,0.536000,71.786000,1.679000,42.382000,29.42
9.596138,3.309000,0.768000,1.765000,165.389000,109.145000,13.908000,29.33
9.606176,2.389000,0.755000,-0.256000,132.779000,-29.802000,22.931000,29.47
9.616168,2.390000,1.169000,0.502000,136.641000,27.237000,15.695000,29.38
9.626188,1.805000,1.201000,0.782000,131.466000,26.229000,-3.924000,29.42
9.636100,1.781000,1.195000,0.531000,92.214000,55.130000,-21.099000,29.42
9.646394,1.848000,1.008000,0.230000,97.649000,77.511000,-37.573000,29.38
9.656177,1.700000,0.605000,-0.352000,101.863000,60.031000,-44.107000,29.47
9.666140,1.540000,0.410000,-0.131000,118.321000,86.672000,-37.435000,29.38
9.676221,1.816000,-0.272000,-0.722000,-110.748000,-42.977000,-192.092000,29.33
9.686138,1.337000,-0.155000,-0.418000,-136.794000,-66.336000,-83.206000,29.33
9.696219,0.960000,-1.063000,-0.362000,-139.710000,-61.191000,-75.618000,29.47
9.706120,1.006000,-0.100000,-1.281000,-163.786000,-54.122000,-47.527000,29.42
9.716176,0.454000,1.076000,-1.710000,-99.740000,-51.802000,-51.389000,29.33
9.726102,0.893000,-0.351000,-1.585000,-93.115000,-109.282000,-77.420000,29.38
9.736217,0.350000,-0.925000,0.211000,-79.771000,54.427000,-37.359000,29.47
9.746037,1.085000,0.158000,-0.854000,-68.168000,-104.107000,-51.359000,29.42
9.756016,0.733000,0.741000,-1.653000,-48.107000,-65.023000,-22.153000,29.42
9.766022,0.686000,-0.074000,-1.013000,-7.115000,-78.473000,-8.458000,29.38
9.775924,0.268000,-0.352000,-0.766000,7.634000,-68.931000,-3.847000,29.47
9.786014,0.265000,-0.058000,-0.986000,-3.405000,-5.359000,-4.733000,29.42
9.795707,0.400000,0.004000,-0.937000,1.237000,26.870000,-4.153000,29.42
9.805686,0.487000,0.006000,-0.924000,16.962000,28.000000,0.092000,29.47
9.815669,0.557000,-0.077000,-0.923000,31.130000,7.527000,4.885000,29.38
9.826107,0.552000,-0.356000,-0.809000,35.038000,-10.962000,4.947000,29.42
9.835703,0.538000,-0.382000,-0.792000,23.405000,-8.168000,0.641000,29.42
9.846196,0.520000,-0.355000,-0.786000,8.550000,1.221000,-4.824000,29.38
9.855691,0.529000,-0.345000,-0.799000,-1.740000,-4.183000,-10.092000,29.38
9.865670,0.531000,-0.342000,-0.809000,-9.466000,-13.664000,-14.015000,29.42
9.875702,0.499000,-0.311000,-0.837000,-14.565000,-18.275000,-17.542000,29.33
9.885774,0.469000,-0.282000,-0.845000,-16.901000,-15.221000,-20.168000,29.47
9.895638,0.421000,-0.211000,-0.846000,-23.405000,-0.229000,-20.412000,29.47
9.905686,0.451000,-0.169000,-0.857000,-22.580000,0.824000,-18.687000,29.47
9.915623,0.479000,-0.117000,-0.921000,-20.000000,-0.931000,-14.733000,29.42
9.928931,0.485000,-0.164000,-0.906000,-7.588000,-16.916000,-11.008000,29.38
9.935727,0.476000,-0.160000,-0.872000,-5.160000,-7.191000,-8.031000,29.38
9.946611,0.453000,-0.210000,-0.846000,-8.046000,0.489000,-7.695000,29.42
9.958353,0.476000,-0.230000,-0.843000,-14.550000,6.275000,-9.069000,29.52
9.965628,0.473000,-0.240000,-0.830000,-18.580000,3.252000,-11.679000,29.42
9.975629,0.498000,-0.243000,-0.838000,-20.901000,1.069000,-13.603000,29.38
9.988224,0.504000,-0.202000,-0.841000,-21.573000,1.344000,-14.534000,29.47
9.995699,0.490000,-0.173000,-0.851000,-20.290000,3.023000,-14.275000,29.52
10.005693,0.427000,-0.155000,-0.867000,-19.267000,0.198000,-13.954000,29.47
