# Gait Analysis Data - MPU6050 IMU
# Duration: 10 seconds
# Format: timestamp(s),ax(g),ay(g),az(g),gx(deg/s),gy(deg/s),gz(deg/s),temp(C)
# Note: Document sensor placement (ankle/wrist) separately
timestamp,ax,ay,az,gx,gy,gz,temp
0.001272,0.525000,0.653000,-1.988000,4.153000,103.588000,-82.260000,30.04
0.002665,0.807000,-0.365000,-1.378000,32.504000,79.786000,-70.565000,30.04
0.003490,0.675000,-0.849000,-0.894000,37.969000,81.008000,-51.405000,30.04
0.004276,0.633000,-0.740000,-1.010000,23.389000,75.664000,-46.626000,29.99
0.005047,0.595000,-0.369000,-1.078000,13.115000,68.473000,-42.061000,29.99
0.005833,0.632000,-0.421000,-1.034000,11.679000,61.206000,-38.198000,30.13
0.006605,0.792000,-0.831000,-0.795000,4.153000,39.969000,-25.756000,30.13
0.007473,0.634000,-0.765000,-0.777000,-7.282000,23.237000,-18.489000,30.08
0.008264,0.451000,-0.535000,-0.827000,-17.252000,11.832000,-18.290000,29.99
0.008881,0.369000,-0.553000,-0.691000,-26.260000,5.496000,-21.023000,30.13
0.009616,0.177000,-0.624000,-0.464000,-36.916000,8.718000,-26.901000,30.04
0.010514,0.201000,-0.477000,-0.670000,-51.328000,14.824000,-33.863000,30.04
0.011301,0.200000,-0.284000,-0.777000,-65.496000,20.397000,-38.489000,30.08
0.012006,0.052000,-0.174000,-0.557000,-86.672000,21.282000,-45.649000,30.08
0.012667,0.144000,-0.402000,-0.547000,-130.458000,7.695000,-55.282000,30.04
0.013431,0.394000,-0.599000,-0.806000,-166.351000,11.496000,-66.000000,30.13
0.014135,0.483000,-0.448000,-1.157000,-176.901000,40.992000,-67.695000,30.08
0.014764,0.644000,-0.383000,-1.106000,-164.244000,55.359000,-70.153000,29.99
0.015577,0.664000,-0.094000,-1.141000,-137.847000,46.748000,-60.061000,30.04
0.016450,0.740000,-0.460000,-1.164000,-121.237000,24.107000,-56.702000,30.04
0.017222,0.566000,-0.104000,-1.102000,-90.336000,0.107000,-47.374000,29.99
0.017821,0.573000,-0.174000,-1.043000,-64.901000,-10.046000,-42.092000,29.99
0.018406,0.534000,-0.153000,-0.932000,-53.939000,-9.740000,-38.153000,30.08
0.018988,0.481000,-0.097000,-0.935000,-47.832000,4.656000,-33.786000,30.04
0.019577,0.447000,-0.089000,-0.893000,-38.931000,13.878000,-27.145000,30.13
0.020150,0.446000,-0.134000,-0.913000,-33.786000,18.229000,-22.733000,29.99
0.020724,0.450000,-0.133000,-0.936000,-26.672000,19.969000,-20.992000,30.04
0.021314,0.536000,-0.116000,-0.938000,-22.733000,25.145000,-17.313000,30.04
0.022012,0.455000,-0.131000,-0.917000,-18.595000,20.183000,-14.931000,30.04
0.022805,0.466000,-0.154000,-0.913000,-17.420000,20.382000,-13.710000,29.99
0.023357,0.450000,-0.155000,-0.883000,-16.107000,12.427000,-13.466000,30.08
0.024036,0.490000,-0.174000,-0.919000,-20.718000,30.214000,-15.344000,29.94
0.024688,0.431000,-0.147000,-0.859000,-15.588000,22.305000,-14.366000,30.04
0.025216,0.469000,-0.176000,-0.860000,-16.763000,26.015000,-15.878000,30.04
0.025736,0.469000,-0.198000,-0.869000,-20.824000,32.198000,-16.321000,30.08
0.026243,0.449000,-0.190000,-0.834000,-22.519000,38.168000,-18.672000,29.99
0.026755,0.473000,-0.170000,-0.866000,-21.282000,36.672000,-18.977000,30.13
0.027333,0.475000,-0.124000,-0.861000,-21.053000,40.351000,-17.817000,30.13
0.027995,0.465000,-0.121000,-0.866000,-20.336000,43.099000,-16.672000,30.08
0.028527,0.498000,-0.167000,-0.877000,-23.023000,44.718000,-16.183000,30.08
0.029048,0.482000,-0.168000,-0.891000,-24.076000,49.893000,-16.763000,30.04
0.029612,0.478000,-0.148000,-0.887000,-24.824000,58.412000,-15.710000,30.04
0.030237,0.489000,-0.116000,-0.876000,-24.947000,70.000000,-16.473000,30.04
0.030973,0.441000,-0.058000,-0.875000,-20.580000,72.641000,-16.779000,29.99
0.031692,0.449000,-0.020000,-0.894000,-21.557000,89.847000,-17.496000,30.08
0.032371,0.431000,-0.005000,-0.859000,-20.840000,103.618000,-20.962000,30.04
0.032996,0.420000,-0.037000,-0.858000,-18.092000,112.718000,-23.053000,30.04
0.033626,0.434000,-0.070000,-0.904000,-13.115000,120.580000,-24.458000,29.99
0.034247,0.474000,-0.039000,-0.902000,-0.977000,135.786000,-22.382000,30.08
0.034861,0.510000,-0.035000,-0.888000,19.160000,152.763000,-20.855000,30.13
0.035476,0.510000,-0.122000,-0.890000,30.321000,169.603000,-20.275000,29.94
0.036151,0.554000,-0.154000,-0.968000,30.107000,180.855000,-22.351000,30.04
0.036770,0.617000,-0.161000,-0.975000,25.420000,192.672000,-30.947000,30.08
0.037454,0.701000,-0.302000,-1.132000,7.069000,215.786000,-43.924000,30.08
0.037988,0.628000,-0.380000,-1.055000,-10.931000,224.458000,-60.260000,29.94
0.038452,0.847000,-0.446000,-1.234000,-24.824000,239.832000,-81.023000,30.04
0.038906,1.053000,-0.489000,-1.228000,-51.817000,253.588000,-98.794000,29.99
0.039368,1.312000,-0.457000,-1.561000,-62.840000,261.954000,-118.336000,30.04
0.039824,1.225000,-0.429000,-1.388000,-57.282000,227.359000,-144.702000,30.13
0.040287,1.239000,-0.464000,-1.529000,-31.908000,199.389000,-158.504000,30.04
0.040743,1.356000,-0.576000,-2.140000,7.725000,175.649000,-169.115000,30.08
0.041202,-0.423000,-1.761000,-1.949000,41.725000,37.008000,-138.519000,30.08
0.041659,0.353000,-2.373000,-2.566000,15.252000,-109.786000,-97.435000,30.04
0.042109,-0.200000,-2.076000,-1.394000,-65.863000,-140.153000,-64.550000,30.04
0.042596,-0.514000,-1.804000,-0.769000,-80.321000,-178.137000,-40.137000,30.13
0.043067,-0.207000,-1.431000,-1.315000,-47.405000,-229.466000,-12.458000,29.99
0.043498,-0.396000,-1.190000,-1.056000,-7.298000,-230.336000,6.214000,30.08
0.043929,-0.345000,-1.115000,-0.734000,20.748000,-220.718000,16.626000,30.04
0.044356,-0.323000,-0.923000,-0.472000,26.718000,-191.908000,20.046000,30.04
0.044796,-0.225000,-0.751000,-0.570000,44.550000,-186.870000,24.351000,29.99
0.045233,-0.045000,-0.616000,-0.720000,69.435000,-173.420000,33.191000,29.99
0.045662,0.118000,-0.607000,-0.854000,93.893000,-167.328000,44.550000,29.99
0.046184,0.246000,-0.579000,-0.934000,110.748000,-169.511000,58.275000,30.04
0.046758,0.288000,-0.490000,-0.982000,118.504000,-171.725000,71.985000,29.94
0.047326,0.339000,-0.348000,-0.983000,122.977000,-170.000000,85.450000,30.08
0.047890,0.407000,-0.169000,-1.044000,127.771000,-163.634000,97.389000,30.08
0.048452,0.512000,0.026000,-1.116000,133.221000,-145.695000,103.328000,30.04
0.049011,0.751000,0.174000,-1.152000,131.252000,-136.718000,106.290000,30.04
0.049562,0.975000,0.264000,-1.290000,122.962000,-117.267000,103.603000,29.99
0.050130,1.211000,0.410000,-1.325000,117.802000,-112.809000,100.504000,29.99
0.050751,1.346000,0.481000,-1.147000,119.832000,-150.809000,100.046000,29.99
0.051218,1.502000,0.582000,-0.884000,112.214000,-133.496000,94.504000,30.04
0.051672,1.704000,0.712000,-0.677000,114.794000,-124.458000,86.412000,30.13
0.052189,1.992000,0.690000,-0.554000,111.466000,-92.992000,82.198000,30.08
0.052715,2.097000,0.749000,-0.306000,102.779000,-57.084000,84.901000,30.08
0.053217,2.123000,0.757000,-0.162000,87.008000,-14.824000,91.969000,30.13
0.053708,2.119000,0.953000,-0.133000,72.763000,22.794000,99.466000,30.13
0.054205,2.122000,1.167000,-0.198000,60.244000,48.901000,97.786000,30.13
0.054707,2.104000,1.300000,-0.311000,51.160000,61.603000,90.031000,30.08
0.055214,1.978000,1.397000,-0.367000,44.947000,60.504000,74.870000,29.99
0.055707,1.894000,1.400000,-0.474000,30.397000,48.641000,52.840000,30.04
0.056206,1.682000,1.366000,-0.464000,7.450000,33.145000,22.718000,30.04
0.056715,1.619000,1.549000,-0.586000,-89.679000,-19.939000,-51.786000,29.99
0.057225,1.493000,1.987000,-0.714000,-68.260000,-22.672000,-70.382000,30.08
0.057833,1.740000,-1.114000,-0.774000,-43.069000,-46.046000,-19.145000,30.04
0.058315,0.302000,-0.909000,-0.268000,-75.710000,-96.885000,15.588000,30.04
0.058785,-0.042000,-0.160000,-1.167000,-94.198000,-88.580000,-19.832000,30.04
0.059241,0.161000,-0.182000,-1.528000,-70.580000,-77.573000,-26.137000,30.08
0.059744,0.173000,-0.210000,-0.631000,-84.534000,-39.038000,-31.542000,30.04
0.060387,0.559000,-0.189000,-1.040000,-84.550000,-23.206000,-32.962000,30.04
0.060838,0.386000,0.123000,-1.178000,-74.504000,17.496000,-26.198000,29.94
0.061279,0.280000,-0.084000,-1.118000,-44.641000,5.740000,-22.000000,29.99
0.061722,0.346000,-0.304000,-0.947000,-39.115000,1.649000,-22.992000,30.08
0.062171,0.438000,-0.243000,-0.949000,-44.046000,-6.870000,-23.435000,30.04
0.062607,0.399000,-0.125000,-0.956000,-47.618000,9.817000,-20.992000,30.13
0.063108,0.347000,-0.099000,-0.907000,-47.634000,8.550000,-19.908000,30.04
0.063567,0.409000,-0.182000,-0.952000,-43.420000,7.282000,-19.008000,29.99
0.064052,0.398000,-0.195000,-0.872000,-42.168000,-5.863000,-18.397000,30.08
0.064521,0.456000,-0.160000,-0.917000,-40.947000,6.855000,-17.511000,30.04
0.064983,0.388000,-0.132000,-0.883000,-35.511000,3.588000,-18.580000,30.04
0.065427,0.405000,-0.130000,-0.908000,-31.496000,0.153000,-16.305000,29.94
0.065885,0.395000,-0.143000,-0.916000,-31.359000,1.527000,-18.214000,29.99
0.066345,0.366000,-0.167000,-0.931000,-25.191000,-2.595000,-18.443000,29.99
0.066790,0.385000,-0.170000,-0.917000,-21.878000,-1.420000,-14.779000,30.04
0.067244,0.386000,-0.111000,-0.938000,-17.878000,4.412000,-12.885000,30.04
0.067687,0.393000,-0.107000,-0.948000,-15.405000,6.641000,-9.176000,29.99
0.068122,0.414000,-0.133000,-0.946000,-13.908000,12.977000,-7.511000,30.08
0.068572,0.421000,-0.137000,-0.947000,-10.718000,10.794000,-5.481000,29.99
0.069011,0.418000,-0.162000,-0.913000,-9.893000,10.229000,-6.168000,29.94
0.069467,0.403000,-0.194000,-0.912000,-10.397000,5.466000,-6.763000,30.04
0.070033,0.424000,-0.185000,-0.894000,-13.130000,6.198000,-8.718000,29.99
0.070691,0.430000,-0.170000,-0.909000,-15.847000,5.221000,-10.122000,29.99
0.071176,0.410000,-0.146000,-0.913000,-16.840000,5.450000,-11.191000,30.04
0.071632,0.421000,-0.104000,-0.913000,-16.397000,6.458000,-10.198000,30.04
0.072082,0.404000,-0.098000,-0.921000,-15.924000,7.252000,-8.916000,30.04
0.072533,0.405000,-0.094000,-0.920000,-14.473000,6.397000,-7.756000,29.99
0.072981,0.404000,-0.091000,-0.924000,-12.977000,6.809000,-6.901000,30.08
0.073439,0.408000,-0.091000,-0.917000,-11.313000,6.962000,-6.198000,30.04
0.073892,0.406000,-0.088000,-0.909000,-10.015000,7.420000,-5.237000,30.04
0.074339,0.407000,-0.094000,-0.902000,-9.237000,7.710000,-4.550000,29.99
0.074790,0.428000,-0.104000,-0.908000,-8.198000,7.191000,-4.427000,29.99
0.075244,0.439000,-0.089000,-0.908000,-7.466000,7.221000,-4.214000,29.99
0.075816,0.430000,-0.084000,-0.906000,-5.603000,6.611000,-3.664000,30.04
0.076410,0.424000,-0.071000,-0.914000,-2.580000,5.466000,-3.084000,29.94
0.076862,0.411000,-0.082000,-0.904000,-1.053000,5.008000,-2.351000,29.99
0.077410,0.410000,-0.085000,-0.907000,-0.214000,5.282000,-2.168000,29.99
0.077934,0.416000,-0.083000,-0.919000,0.855000,5.099000,-1.313000,30.04
0.078397,0.409000,-0.077000,-0.914000,2.092000,5.740000,-0.076000,29.94
0.078898,0.405000,-0.089000,-0.916000,3.618000,5.969000,0.870000,30.13
0.079449,0.405000,-0.109000,-0.900000,4.458000,6.840000,0.733000,29.99
0.079958,0.404000,-0.100000,-0.911000,4.534000,7.969000,0.733000,29.99
0.080437,0.397000,-0.106000,-0.903000,5.542000,9.542000,0.794000,30.04
0.080885,0.401000,-0.098000,-0.906000,8.397000,11.573000,1.206000,30.13
0.081329,0.394000,-0.090000,-0.936000,12.229000,13.237000,2.076000,30.18
0.081770,0.422000,-0.087000,-0.918000,15.573000,16.626000,3.435000,30.08
0.082292,0.447000,-0.090000,-0.954000,17.786000,17.481000,5.618000,29.99
0.082762,0.483000,-0.109000,-0.943000,18.153000,16.412000,7.740000,30.04
0.083214,0.502000,-0.113000,-0.952000,17.603000,13.099000,10.489000,29.94
0.083662,0.495000,-0.097000,-0.924000,18.534000,5.725000,14.626000,29.99
0.084117,0.469000,-0.137000,-0.928000,19.771000,-3.313000,16.840000,30.04
0.084558,0.439000,-0.184000,-0.899000,18.947000,-8.427000,17.115000,30.04
0.084995,0.432000,-0.135000,-0.888000,18.580000,-10.153000,16.702000,30.04
0.085447,0.409000,-0.138000,-0.902000,20.183000,-8.885000,16.458000,30.08
0.085891,0.378000,-0.168000,-0.878000,21.756000,-7.023000,15.573000,29.99
0.086340,0.411000,-0.174000,-0.916000,25.053000,-4.275000,14.931000,30.04
0.086774,0.416000,-0.133000,-0.929000,28.901000,-2.366000,14.260000,30.04
0.087284,0.428000,-0.154000,-0.932000,33.221000,3.511000,14.916000,29.94
0.087745,0.363000,-0.156000,-0.929000,34.977000,3.374000,14.473000,29.99
0.088183,0.380000,-0.142000,-0.958000,39.176000,9.450000,14.168000,29.89
0.088628,0.355000,-0.115000,-0.972000,45.832000,6.504000,7.802000,29.94
0.089077,0.257000,-0.132000,-1.037000,42.901000,16.290000,0.198000,29.94
0.089627,0.203000,0.115000,-1.082000,53.130000,8.061000,-26.519000,29.99
0.090234,0.187000,0.298000,-1.103000,67.313000,-9.924000,-68.687000,29.99
0.090743,0.164000,0.576000,-1.383000,125.710000,-33.542000,-148.061000,30.08
0.091222,0.301000,0.134000,-1.105000,104.611000,-77.466000,-186.702000,29.94
0.091693,0.529000,0.124000,-0.703000,111.496000,-76.992000,-232.748000,30.04
0.092169,0.738000,0.153000,-0.685000,96.672000,-88.489000,-266.962000,29.99
0.092710,0.909000,0.259000,-0.883000,84.092000,-92.275000,-291.542000,29.99
0.093159,1.072000,0.097000,-0.876000,105.710000,-90.534000,-298.824000,29.94
0.093599,1.021000,0.015000,-0.638000,128.550000,-105.740000,-302.885000,29.94
0.094053,0.968000,-0.015000,-0.427000,143.282000,-105.023000,-306.427000,29.99
0.094492,0.886000,-0.018000,-0.317000,140.214000,-92.656000,-310.244000,30.08
0.094940,0.839000,0.066000,-0.371000,134.534000,-70.107000,-314.534000,30.08
0.095375,0.801000,0.113000,-0.505000,130.366000,-52.611000,-317.466000,30.04
0.095807,0.763000,0.165000,-0.613000,129.832000,-45.618000,-318.229000,30.04
0.096248,0.734000,0.208000,-0.723000,127.191000,-45.969000,-319.466000,29.99
0.096711,0.711000,0.216000,-0.850000,121.176000,-49.924000,-324.122000,29.99
0.097181,0.723000,0.256000,-0.977000,115.069000,-55.053000,-330.015000,30.04
0.097642,0.749000,0.255000,-1.162000,116.947000,-60.885000,-335.985000,30.04
0.098081,0.828000,0.205000,-1.283000,126.672000,-83.328000,-333.099000,29.94
0.098542,0.727000,0.091000,-0.899000,130.855000,-92.550000,-330.916000,29.99
0.098982,0.613000,0.010000,-0.704000,111.588000,-96.916000,-332.962000,29.99
0.099415,0.687000,0.093000,-0.833000,112.519000,-84.794000,-330.611000,30.04
0.099947,0.707000,-0.083000,-0.775000,119.206000,-77.756000,-322.137000,30.04
0.100950,0.732000,-0.313000,-0.704000,109.252000,-74.290000,-312.229000,30.08
0.101411,0.674000,-0.312000,-0.679000,103.985000,-70.366000,-300.702000,29.99
0.101850,0.680000,-0.417000,-0.732000,105.130000,-65.542000,-286.397000,30.04
0.102320,0.680000,-0.529000,-0.710000,102.595000,-53.374000,-270.000000,30.04
0.102773,0.655000,-0.630000,-0.739000,94.992000,-51.160000,-253.237000,30.04
0.103221,0.623000,-0.612000,-0.728000,91.618000,-47.053000,-237.252000,29.99
0.103664,0.609000,-0.681000,-0.756000,87.847000,-46.519000,-220.992000,30.04
0.104099,0.546000,-0.650000,-0.749000,83.802000,-42.565000,-206.198000,30.04
0.104534,0.482000,-0.695000,-0.721000,84.473000,-41.740000,-190.427000,29.94
0.104990,0.438000,-0.750000,-0.758000,91.053000,-38.733000,-173.053000,30.08
0.105456,0.447000,-0.832000,-0.765000,94.198000,-36.015000,-151.084000,29.99
0.105906,0.470000,-0.868000,-0.776000,94.794000,-32.351000,-123.740000,29.94
0.106348,0.541000,-0.945000,-0.728000,94.260000,-20.534000,-88.458000,29.94
0.106791,0.584000,-0.881000,-0.785000,86.687000,-19.847000,-48.580000,29.94
0.107226,0.439000,-0.997000,-0.731000,76.107000,-5.374000,5.511000,29.99
0.107664,0.685000,-1.125000,-0.589000,58.046000,-10.901000,31.649000,29.99
0.108118,0.271000,-0.456000,-0.668000,44.076000,-15.908000,23.206000,30.04
0.108563,0.253000,0.010000,-1.041000,40.718000,1.863000,11.099000,29.94
0.108991,0.397000,-0.196000,-1.039000,42.214000,1.405000,9.603000,30.08
0.109417,0.336000,-0.399000,-0.756000,40.931000,-3.313000,11.252000,29.89
0.109934,0.367000,-0.422000,-0.801000,32.031000,1.405000,9.603000,29.99
0.110521,0.312000,-0.268000,-0.844000,25.695000,0.046000,6.229000,29.94
0.110974,0.261000,-0.200000,-0.791000,19.160000,3.069000,2.947000,30.04
0.111420,0.335000,-0.372000,-0.798000,9.954000,5.420000,-0.504000,29.99
0.111873,0.454000,-0.497000,-0.821000,2.015000,8.977000,-2.153000,29.99
0.112344,0.455000,-0.361000,-0.875000,-1.115000,5.389000,-1.450000,30.04
0.112792,0.382000,-0.199000,-0.925000,-0.626000,0.321000,-0.382000,30.04
0.113232,0.322000,-0.206000,-0.881000,-0.519000,-1.863000,0.244000,30.04
0.113676,0.303000,-0.226000,-0.878000,1.053000,-2.107000,-0.748000,30.08
0.114109,0.303000,-0.174000,-0.936000,4.137000,0.794000,-0.947000,29.99
0.114522,0.307000,-0.160000,-0.972000,8.153000,9.069000,-0.901000,30.04
0.114985,0.362000,-0.209000,-0.988000,13.908000,13.099000,1.008000,30.04
0.115406,0.381000,-0.271000,-0.975000,20.534000,12.718000,2.809000,29.99
0.115820,0.398000,-0.282000,-0.943000,24.534000,11.527000,4.992000,29.99
0.116227,0.400000,-0.302000,-0.911000,24.550000,10.565000,5.695000,30.04
0.116666,0.402000,-0.334000,-0.885000,23.374000,11.878000,6.031000,29.94
0.117092,0.404000,-0.347000,-0.870000,20.992000,12.076000,5.908000,30.13
0.117526,0.408000,-0.358000,-0.844000,19.313000,9.679000,5.863000,30.08
0.117959,0.382000,-0.370000,-0.838000,17.099000,5.985000,4.702000,29.99
0.118367,0.387000,-0.367000,-0.840000,11.573000,6.214000,3.557000,29.94
0.118774,0.386000,-0.336000,-0.863000,8.580000,5.817000,2.901000,30.04
0.119180,0.366000,-0.315000,-0.871000,7.832000,5.969000,2.061000,29.89
0.119584,0.385000,-0.318000,-0.897000,8.458000,4.733000,2.473000,29.99
0.120092,0.379000,-0.306000,-0.902000,10.733000,5.878000,2.931000,30.04
0.120635,0.367000,-0.304000,-0.905000,12.229000,5.847000,3.359000,30.13
0.121080,0.364000,-0.333000,-0.863000,11.985000,6.962000,3.420000,30.04
0.121597,0.361000,-0.356000,-0.819000,9.053000,8.611000,2.214000,29.99
0.122062,0.369000,-0.363000,-0.812000,5.374000,8.290000,0.809000,29.94
0.122503,0.372000,-0.368000,-0.808000,0.672000,7.557000,-0.565000,30.13
0.122938,0.388000,-0.360000,-0.812000,-2.992000,7.710000,-1.420000,30.04
0.123366,0.393000,-0.355000,-0.844000,-5.405000,4.916000,-1.481000,29.99
0.123799,0.389000,-0.323000,-0.856000,-5.450000,4.824000,-1.191000,29.89
0.124226,0.380000,-0.305000,-0.863000,-3.847000,3.817000,-0.519000,29.94
0.124657,0.364000,-0.320000,-0.857000,-2.992000,2.824000,-0.031000,29.85
0.125077,0.366000,-0.326000,-0.849000,-3.359000,3.786000,0.031000,29.99
0.125496,0.372000,-0.310000,-0.868000,-3.237000,5.481000,0.489000,30.08
0.125918,0.375000,-0.312000,-0.869000,-2.473000,6.458000,1.023000,29.99
0.126334,0.382000,-0.313000,-0.877000,-1.496000,7.511000,1.802000,30.04
0.126745,0.383000,-0.317000,-0.885000,0.534000,7.542000,3.252000,29.94
0.127173,0.374000,-0.293000,-0.869000,2.580000,8.198000,4.015000,29.89
0.127611,0.358000,-0.319000,-0.877000,3.756000,7.710000,3.878000,29.99
0.128030,0.380000,-0.333000,-0.859000,4.214000,7.863000,3.786000,29.94
0.128435,0.414000,-0.348000,-0.882000,5.145000,9.176000,3.786000,29.94
0.128835,0.401000,-0.323000,-0.888000,7.573000,8.260000,3.985000,29.99
0.129243,0.375000,-0.360000,-0.839000,7.053000,5.817000,3.618000,29.99
0.129673,0.395000,-0.376000,-0.825000,5.099000,4.870000,3.053000,29.99
0.130103,0.387000,-0.370000,-0.849000,2.718000,5.679000,2.565000,29.94
0.130521,0.384000,-0.368000,-0.838000,1.206000,6.504000,1.939000,30.13
0.130933,0.391000,-0.379000,-0.831000,-0.794000,5.954000,1.313000,29.99
0.131341,0.378000,-0.374000,-0.841000,-3.282000,5.328000,0.443000,29.99
0.131879,0.383000,-0.371000,-0.850000,-5.588000,5.359000,-0.260000,30.04
0.132568,0.387000,-0.359000,-0.863000,-7.084000,6.473000,-0.824000,30.04
0.133012,0.380000,-0.355000,-0.870000,-7.527000,7.221000,-1.206000,29.99
0.133438,0.388000,-0.349000,-0.844000,-7.771000,6.305000,-1.710000,29.99
0.133864,0.390000,-0.351000,-0.839000,-9.221000,6.672000,-2.168000,29.89
0.134284,0.405000,-0.351000,-0.872000,-9.588000,7.954000,-2.550000,30.04
0.134714,0.388000,-0.369000,-0.855000,-10.489000,7.832000,-3.130000,30.04
0.135143,0.377000,-0.397000,-0.825000,-13.069000,6.427000,-4.565000,29.99
0.135570,0.390000,-0.395000,-0.824000,-16.840000,8.229000,-6.366000,30.04
0.135986,0.414000,-0.362000,-0.866000,-18.275000,11.099000,-7.618000,30.04
0.136401,0.416000,-0.364000,-0.844000,-19.557000,9.435000,-8.122000,30.04
0.136817,0.405000,-0.393000,-0.829000,-22.748000,6.092000,-8.962000,30.08
0.137255,0.430000,-0.417000,-0.856000,-26.046000,4.718000,-10.534000,29.99
0.137692,0.404000,-0.399000,-0.866000,-28.809000,5.298000,-11.695000,30.04
0.138116,0.341000,-0.402000,-0.813000,-33.649000,1.710000,-13.847000,29.94
0.138569,0.355000,-0.404000,-0.831000,-37.252000,1.969000,-15.206000,30.13
0.139018,0.337000,-0.334000,-0.840000,-39.298000,4.748000,-16.000000,30.08
0.139490,0.340000,-0.314000,-0.874000,-38.855000,8.183000,-17.328000,29.89
0.139921,0.348000,-0.254000,-0.911000,-34.290000,10.214000,-23.634000,29.94
0.140354,0.332000,-0.241000,-0.961000,-30.641000,9.878000,-29.969000,30.04
0.140791,0.200000,-0.205000,-0.905000,-19.511000,6.458000,-40.595000,30.08
0.141216,0.164000,0.160000,-1.081000,-3.145000,5.084000,-69.374000,30.08
0.141753,0.168000,-0.009000,-1.224000,14.290000,-7.985000,-106.885000,30.13
0.142329,0.072000,0.172000,-1.116000,104.947000,-9.542000,-189.328000,30.04
0.142796,0.229000,-0.140000,-1.124000,90.000000,-81.756000,-216.947000,29.99
0.143235,0.312000,-0.392000,-0.804000,104.580000,-66.137000,-238.992000,29.99
0.143665,0.377000,-0.531000,-0.698000,102.595000,-71.710000,-251.053000,30.08
0.144097,0.411000,-0.540000,-0.771000,100.977000,-67.908000,-250.794000,29.94
0.144524,0.541000,-0.668000,-0.844000,117.893000,-58.290000,-241.481000,30.04
0.144970,0.577000,-0.842000,-0.776000,138.672000,-61.267000,-223.374000,29.99
0.145416,0.534000,-0.932000,-0.648000,146.840000,-67.038000,-204.885000,29.99
0.145854,0.424000,-0.819000,-0.560000,141.664000,-66.779000,-192.336000,30.04
0.146303,0.364000,-0.675000,-0.654000,135.252000,-60.458000,-185.863000,30.13
0.146752,0.327000,-0.468000,-0.789000,128.198000,-53.924000,-182.840000,30.08
0.147317,0.281000,-0.271000,-0.910000,124.977000,-56.168000,-182.107000,30.04
0.147887,0.225000,-0.068000,-0.980000,121.695000,-66.214000,-183.389000,30.04
0.148345,0.189000,0.074000,-0.987000,113.313000,-79.420000,-186.916000,29.94
0.148775,0.155000,0.202000,-0.989000,97.740000,-92.962000,-193.237000,30.04
0.149210,0.173000,0.292000,-0.940000,73.313000,-101.298000,-204.626000,29.99
0.149676,0.134000,0.406000,-0.689000,6.443000,-110.840000,-211.756000,30.04
0.150124,0.525000,0.857000,-0.625000,-35.405000,-93.908000,-225.893000,30.13
0.150554,0.612000,1.240000,-0.654000,-0.168000,-52.687000,-207.618000,30.04
0.151007,1.331000,-0.788000,-0.678000,-57.756000,-53.664000,-97.954000,29.89
0.151437,0.948000,0.189000,-0.560000,-72.855000,-11.374000,-13.481000,30.08
0.151867,0.904000,-0.399000,-2.203000,-14.382000,21.405000,0.015000,30.04
0.152469,0.133000,0.493000,-1.008000,-2.885000,-46.076000,6.672000,29.94
0.153063,0.312000,-1.101000,-0.607000,23.496000,-36.046000,5.511000,29.99
0.153528,0.365000,-0.784000,-0.698000,-2.336000,-61.145000,-1.435000,30.08
0.154039,0.172000,0.039000,-0.986000,-12.137000,-5.389000,-16.687000,29.94
0.154525,0.385000,-0.023000,-0.937000,-7.756000,18.168000,-12.962000,29.94
0.154971,0.477000,-0.173000,-0.966000,-0.519000,27.695000,-6.656000,30.04
0.155418,0.453000,-0.305000,-0.933000,8.031000,30.397000,-6.504000,29.99
0.155848,0.449000,-0.413000,-0.817000,9.267000,10.718000,-7.863000,29.89
0.156269,0.422000,-0.342000,-0.855000,0.092000,4.443000,-10.412000,29.94
0.156687,0.384000,-0.224000,-0.920000,-8.550000,6.443000,-10.534000,30.04
0.157127,0.357000,-0.168000,-0.912000,-25.450000,27.939000,-5.817000,29.89
0.157552,0.396000,-0.160000,-0.928000,-9.298000,0.824000,-5.237000,29.99
0.157975,0.388000,-0.161000,-0.956000,-3.252000,0.260000,-2.870000,30.04
0.158419,0.387000,-0.183000,-0.908000,-1.298000,3.313000,-1.649000,30.04
0.158859,0.371000,-0.207000,-0.893000,-3.359000,8.275000,-1.313000,29.99
0.159310,0.408000,-0.228000,-0.897000,-6.702000,12.794000,-1.786000,30.08
0.159757,0.419000,-0.245000,-0.902000,-6.534000,10.672000,-1.634000,29.94
0.160198,0.411000,-0.261000,-0.892000,-6.427000,9.084000,-2.443000,30.04
0.160617,0.403000,-0.253000,-0.888000,-8.061000,10.168000,-3.267000,29.99
0.161034,0.400000,-0.229000,-0.906000,-8.275000,9.176000,-3.511000,29.99
0.161458,0.399000,-0.221000,-0.896000,-10.153000,9.435000,-3.588000,29.94
0.161888,0.400000,-0.227000,-0.895000,-11.038000,7.618000,-4.244000,30.04
0.162320,0.405000,-0.223000,-0.899000,-11.634000,4.885000,-5.023000,30.04
0.162773,0.405000,-0.216000,-0.888000,-13.328000,3.374000,-5.786000,29.99
0.163223,0.400000,-0.217000,-0.881000,-15.221000,3.313000,-6.534000,29.99
0.163654,0.391000,-0.209000,-0.883000,-15.313000,2.931000,-7.115000,29.94
0.164191,0.383000,-0.196000,-0.901000,-15.908000,-0.336000,-7.618000,29.94
0.164830,0.380000,-0.209000,-0.888000,-17.466000,-0.504000,-8.916000,29.94
0.165306,0.385000,-0.221000,-0.883000,-18.702000,-0.748000,-10.504000,30.08
0.165765,0.400000,-0.185000,-0.902000,-19.511000,-1.618000,-10.626000,29.99
0.166221,0.408000,-0.170000,-0.908000,-19.145000,-1.221000,-10.855000,30.04
0.166668,0.403000,-0.167000,-0.904000,-16.901000,-1.847000,-10.580000,30.04
0.167164,0.399000,-0.156000,-0.892000,-15.466000,-1.557000,-9.695000,29.99
0.167639,0.385000,-0.144000,-0.896000,-12.718000,-1.313000,-8.015000,29.89
0.168067,0.389000,-0.139000,-0.894000,-10.412000,2.290000,-7.160000,30.04
0.168508,0.381000,-0.147000,-0.893000,-9.466000,4.580000,-5.634000,30.04
0.168927,0.398000,-0.153000,-0.908000,-6.901000,4.794000,-5.099000,29.99
0.169344,0.389000,-0.153000,-0.905000,-5.221000,6.153000,-4.397000,29.99
0.169765,0.398000,-0.138000,-0.904000,-3.053000,7.542000,-3.221000,29.99
0.170179,0.396000,-0.128000,-0.913000,0.305000,9.115000,-1.221000,29.94
0.170614,0.392000,-0.158000,-0.915000,2.870000,9.817000,-0.137000,30.04
0.171059,0.404000,-0.178000,-0.913000,2.412000,9.420000,-0.015000,29.99
0.171507,0.416000,-0.180000,-0.909000,1.527000,10.412000,0.229000,29.99
0.171943,0.411000,-0.165000,-0.906000,1.924000,10.198000,0.702000,29.94
0.172382,0.401000,-0.171000,-0.906000,3.573000,10.595000,1.237000,30.04
0.172834,0.410000,-0.197000,-0.904000,6.260000,11.710000,1.435000,29.99
0.173253,0.418000,-0.193000,-0.904000,8.748000,13.573000,1.649000,29.89
0.173680,0.419000,-0.195000,-0.913000,9.908000,15.435000,1.450000,29.99
0.174186,0.436000,-0.220000,-0.910000,8.992000,16.504000,1.374000,30.04
0.174764,0.469000,-0.228000,-0.925000,6.290000,16.321000,1.389000,30.04
0.175233,0.459000,-0.218000,-0.929000,3.420000,14.061000,2.137000,29.99
0.175756,0.476000,-0.224000,-0.940000,1.466000,9.237000,3.389000,29.94
0.176223,0.457000,-0.239000,-0.913000,0.947000,4.458000,4.962000,30.04
0.176660,0.391000,-0.259000,-0.894000,-0.412000,1.695000,5.679000,29.94
0.177083,0.340000,-0.252000,-0.882000,-2.519000,1.084000,3.008000,29.89
0.177518,0.354000,-0.289000,-0.904000,-4.626000,2.580000,-1.191000,29.99
0.177964,0.351000,-0.272000,-0.866000,-8.504000,16.672000,-7.282000,30.04
0.178399,0.262000,-0.169000,-0.896000,-18.580000,16.931000,-16.901000,29.94
0.178853,0.444000,-0.335000,-0.942000,-10.061000,34.611000,-25.038000,30.04
0.179286,0.302000,-0.241000,-0.858000,-11.847000,42.366000,-38.061000,29.99
0.179735,0.329000,-0.049000,-0.987000,-2.427000,34.580000,-49.588000,29.99
0.180183,0.380000,0.045000,-1.042000,13.786000,55.298000,-66.092000,29.94
0.180616,0.463000,-0.183000,-0.991000,27.145000,45.176000,-79.664000,29.94
0.181070,0.528000,-0.279000,-1.023000,37.695000,34.748000,-88.611000,30.08
0.181506,0.501000,-0.403000,-0.947000,34.382000,17.206000,-93.252000,30.08
0.181949,0.516000,-0.438000,-0.968000,27.069000,3.237000,-94.290000,29.94
0.182400,0.316000,-0.678000,-0.919000,19.954000,-12.046000,-83.985000,30.04
0.182860,0.146000,-0.879000,-0.992000,18.702000,-32.519000,-62.595000,29.99
0.183324,0.454000,-0.640000,-1.042000,38.214000,-27.023000,-43.664000,29.89
0.183792,0.062000,-0.685000,-0.865000,43.038000,-27.481000,-32.504000,29.99
0.184340,0.090000,-0.581000,-0.812000,45.634000,-31.649000,-25.969000,30.04
0.184874,0.078000,-0.487000,-0.841000,47.908000,-37.664000,-23.344000,29.94
0.185337,0.109000,-0.408000,-0.877000,53.099000,-39.542000,-21.725000,30.08
0.185792,0.134000,-0.362000,-0.842000,57.679000,-42.351000,-19.481000,29.99
0.186241,0.184000,-0.355000,-0.812000,58.458000,-43.695000,-16.412000,30.04
0.186696,0.231000,-0.329000,-0.829000,56.015000,-43.176000,-10.962000,29.94
0.187225,0.282000,-0.278000,-0.853000,54.412000,-41.038000,-5.740000,30.08
0.187689,0.306000,-0.217000,-0.845000,54.626000,-39.527000,-1.649000,29.99
0.188148,0.350000,-0.183000,-0.827000,54.840000,-37.985000,1.145000,29.99
0.188601,0.395000,-0.151000,-0.818000,55.099000,-34.748000,3.435000,29.94
0.189068,0.423000,-0.132000,-0.786000,55.405000,-32.550000,4.855000,30.04
0.189524,0.434000,-0.094000,-0.755000,55.527000,-29.237000,5.405000,29.99
0.189983,0.395000,-0.031000,-0.674000,56.977000,-23.389000,4.947000,29.94
0.190404,0.313000,0.029000,-0.549000,58.473000,-14.504000,2.351000,30.13
0.190842,0.566000,-0.157000,-0.359000,46.321000,1.481000,-10.122000,30.04
0.191270,1.080000,0.912000,-0.026000,-140.000000,18.870000,-44.748000,29.99
0.191699,1.248000,2.605000,-0.286000,-150.519000,69.160000,-79.267000,29.99
0.192141,1.322000,1.497000,-2.350000,-126.137000,94.794000,-53.557000,29.94
0.192592,1.130000,-0.297000,-2.520000,-35.252000,32.305000,0.947000,29.94
0.193019,0.048000,-0.560000,-0.255000,1.863000,-89.237000,14.748000,29.94
0.193457,0.450000,-0.899000,-0.841000,11.802000,-88.748000,0.947000,29.89
0.193880,0.220000,-0.135000,-1.061000,-3.466000,-49.359000,-8.214000,29.99
0.194414,0.318000,-0.190000,-0.799000,-9.191000,-14.641000,-9.771000,29.94
0.194983,0.546000,-0.287000,-0.993000,-12.107000,21.756000,-3.099000,30.04
0.195440,0.401000,-0.065000,-1.034000,-8.901000,36.870000,-3.527000,29.99
0.195892,0.423000,-0.196000,-1.003000,5.573000,22.382000,-1.115000,29.99
0.196334,0.447000,-0.306000,-0.875000,6.534000,7.908000,-0.809000,30.04
0.196834,0.440000,-0.280000,-0.884000,1.924000,-2.260000,-1.695000,29.94
0.197317,0.414000,-0.204000,-0.882000,-1.511000,-7.740000,-1.817000,29.94
0.197758,0.400000,-0.208000,-0.879000,-8.168000,0.931000,-2.366000,29.99
0.198190,0.403000,-0.212000,-0.901000,-11.053000,2.122000,-2.260000,29.99
0.198615,0.401000,-0.186000,-0.923000,-11.603000,3.603000,-2.473000,29.94
0.199044,0.397000,-0.197000,-0.914000,-9.893000,-2.534000,-2.092000,29.94
0.199467,0.396000,-0.193000,-0.897000,-8.351000,-4.168000,-2.092000,29.89
0.199886,0.382000,-0.172000,-0.908000,-7.985000,-1.053000,-1.847000,29.89
0.200309,0.370000,-0.172000,-0.912000,-8.092000,1.511000,-1.695000,29.94
0.200729,0.379000,-0.191000,-0.905000,-7.252000,1.771000,-1.847000,29.94
0.201149,0.394000,-0.173000,-0.915000,-4.244000,0.779000,-1.130000,29.99
0.201565,0.383000,-0.170000,-0.911000,-2.397000,2.305000,-0.595000,29.99
0.201983,0.379000,-0.187000,-0.894000,-2.885000,4.107000,-0.473000,29.99
0.202418,0.398000,-0.207000,-0.893000,-4.122000,4.580000,-0.519000,30.04
0.202859,0.396000,-0.209000,-0.897000,-4.336000,3.634000,-0.595000,29.94
0.203279,0.393000,-0.205000,-0.903000,-4.229000,1.649000,-0.794000,29.89
0.203693,0.393000,-0.201000,-0.892000,-4.580000,0.244000,-0.977000,29.94
0.204114,0.394000,-0.213000,-0.895000,-5.099000,0.519000,-1.466000,30.04
0.204680,0.386000,-0.200000,-0.899000,-6.427000,0.000000,-1.878000,29.94
0.205136,0.373000,-0.206000,-0.893000,-7.679000,0.153000,-2.015000,29.85
0.205589,0.374000,-0.193000,-0.898000,-8.427000,0.412000,-2.702000,29.99
0.206033,0.374000,-0.173000,-0.900000,-7.618000,1.481000,-2.855000,30.04
0.206460,0.385000,-0.166000,-0.907000,-5.634000,2.076000,-2.046000,29.94
0.206879,0.381000,-0.174000,-0.913000,-3.618000,2.366000,-1.450000,29.94
0.207309,0.378000,-0.167000,-0.897000,-2.046000,2.916000,-0.855000,29.99
0.207743,0.382000,-0.172000,-0.900000,-1.069000,3.802000,-0.397000,29.89
0.208176,0.372000,-0.174000,-0.895000,-0.489000,3.954000,0.122000,29.94
0.208601,0.372000,-0.180000,-0.897000,-0.229000,4.595000,0.000000,29.94
0.209014,0.387000,-0.185000,-0.898000,-0.137000,5.298000,-0.260000,29.99
0.209429,0.380000,-0.181000,-0.897000,0.015000,5.099000,-0.366000,29.99
0.209849,0.384000,-0.190000,-0.896000,-0.534000,5.053000,-0.382000,29.99
0.210269,0.385000,-0.198000,-0.897000,-1.679000,4.595000,-0.733000,29.94
0.210684,0.388000,-0.196000,-0.899000,-2.718000,4.122000,-1.511000,29.94
0.211107,0.395000,-0.198000,-0.890000,-3.878000,3.939000,-1.908000,29.99
0.211525,0.387000,-0.198000,-0.903000,-4.519000,3.573000,-2.458000,29.99
0.211956,0.368000,-0.188000,-0.906000,-4.534000,2.916000,-2.672000,30.04
0.212395,0.385000,-0.188000,-0.909000,-4.977000,3.466000,-2.916000,29.94
0.212940,0.377000,-0.182000,-0.903000,-4.748000,4.260000,-2.931000,29.99
0.213419,0.382000,-0.179000,-0.902000,-4.397000,4.443000,-2.901000,29.99
0.213856,0.386000,-0.174000,-0.908000,-3.924000,5.237000,-2.824000,29.94
0.214359,0.385000,-0.169000,-0.896000,-3.099000,5.863000,-2.626000,29.94
0.215020,0.376000,-0.180000,-0.902000,-2.687000,6.305000,-2.748000,29.80
0.215477,0.392000,-0.177000,-0.895000,-3.313000,6.947000,-3.023000,29.99
0.215925,0.384000,-0.188000,-0.900000,-3.725000,7.069000,-3.145000,29.89
0.216368,0.392000,-0.186000,-0.891000,-4.366000,6.992000,-3.573000,29.94
0.216808,0.396000,-0.181000,-0.906000,-4.519000,6.626000,-3.542000,29.94
0.217287,0.405000,-0.171000,-0.907000,-4.351000,6.260000,-3.267000,29.99
0.217727,0.397000,-0.180000,-0.906000,-3.618000,5.847000,-3.206000,30.04
0.218139,0.386000,-0.176000,-0.897000,-3.573000,5.679000,-3.023000,29.94
0.218545,0.387000,-0.182000,-0.889000,-4.168000,5.802000,-3.511000,29.94
0.218959,0.391000,-0.180000,-0.899000,-4.901000,6.641000,-4.000000,29.99
0.219371,0.387000,-0.180000,-0.903000,-5.527000,7.023000,-4.382000,29.99
0.219781,0.401000,-0.162000,-0.913000,-5.450000,7.267000,-4.107000,30.04
0.220187,0.405000,-0.150000,-0.905000,-4.198000,7.008000,-3.435000,30.04
0.220600,0.406000,-0.150000,-0.909000,-2.702000,6.427000,-2.443000,29.99
0.221016,0.398000,-0.163000,-0.899000,-1.908000,6.061000,-2.000000,29.99
0.221427,0.386000,-0.173000,-0.894000,-2.260000,6.137000,-2.336000,29.94
0.221863,0.395000,-0.189000,-0.895000,-3.603000,7.145000,-3.038000,30.04
0.222301,0.408000,-0.178000,-0.900000,-4.580000,7.130000,-3.634000,29.99
0.222729,0.412000,-0.174000,-0.897000,-4.901000,7.069000,-3.618000,29.99
0.223139,0.407000,-0.164000,-0.906000,-4.519000,6.137000,-3.176000,29.99
0.223548,0.407000,-0.160000,-0.908000,-3.832000,5.817000,-2.840000,29.94
0.223952,0.415000,-0.165000,-0.897000,-3.282000,5.420000,-2.198000,29.94
0.224444,0.407000,-0.155000,-0.891000,-2.992000,5.145000,-2.031000,30.08
0.225010,0.394000,-0.175000,-0.897000,-3.267000,5.878000,-2.153000,29.99
0.225472,0.405000,-0.177000,-0.893000,-3.511000,5.649000,-2.198000,29.94
0.225922,0.409000,-0.152000,-0.895000,-3.344000,5.969000,-2.107000,29.94
0.226363,0.405000,-0.153000,-0.901000,-2.336000,5.740000,-1.771000,29.89
0.226804,0.414000,-0.158000,-0.906000,-1.527000,5.099000,-0.992000,29.99
0.227315,0.418000,-0.154000,-0.906000,-0.687000,4.458000,-0.061000,29.94
0.227744,0.413000,-0.154000,-0.898000,-0.046000,3.420000,0.504000,29.94
0.228153,0.397000,-0.160000,-0.895000,-0.092000,2.748000,0.214000,29.85
0.228574,0.398000,-0.184000,-0.886000,-0.687000,2.794000,-0.031000,29.89
0.228987,0.402000,-0.175000,-0.891000,-1.389000,3.282000,-0.611000,29.94
0.229393,0.402000,-0.175000,-0.885000,-1.725000,3.802000,-0.870000,29.94
0.229821,0.406000,-0.171000,-0.898000,-1.924000,3.832000,-0.992000,29.85
0.230264,0.406000,-0.164000,-0.897000,-1.847000,3.450000,-1.130000,29.99
0.230702,0.419000,-0.155000,-0.917000,-1.313000,3.817000,-0.992000,29.99
0.231107,0.425000,-0.143000,-0.925000,1.008000,5.221000,-0.626000,29.94
0.231511,0.434000,-0.152000,-0.886000,4.092000,5.282000,0.046000,29.85
0.231913,0.427000,-0.106000,-0.893000,9.496000,3.756000,1.557000,29.99
0.232337,0.402000,-0.148000,-0.895000,11.679000,1.954000,2.031000,29.99
0.232747,0.420000,-0.153000,-0.932000,12.824000,1.038000,2.427000,29.99
0.233153,0.444000,-0.100000,-0.940000,18.656000,-1.847000,4.855000,29.94
0.233559,0.494000,-0.077000,-0.964000,25.115000,-5.863000,9.374000,29.94
0.233973,0.471000,-0.098000,-0.967000,29.664000,-12.137000,13.344000,29.99
0.234471,0.480000,-0.154000,-0.924000,32.458000,-17.786000,15.542000,29.99
0.235023,0.402000,-0.266000,-0.877000,32.702000,-24.290000,14.977000,29.94
0.235477,0.334000,-0.278000,-0.836000,25.420000,-28.229000,12.260000,29.94
0.235916,0.311000,-0.260000,-0.848000,19.069000,-21.160000,9.069000,29.99
0.236353,0.329000,-0.262000,-0.842000,12.427000,-15.084000,6.687000,29.99
0.236795,0.314000,-0.254000,-0.868000,9.863000,-9.588000,4.397000,29.89
0.245947,0.343000,-0.233000,-0.892000,8.626000,-4.519000,3.252000,29.94
0.255986,0.356000,-0.221000,-0.897000,9.450000,-4.229000,3.435000,30.04
0.266838,0.368000,-0.202000,-0.894000,9.221000,-3.511000,4.229000,29.89
0.277088,0.354000,-0.225000,-0.899000,8.198000,-1.802000,4.519000,29.99
0.290469,0.382000,-0.282000,-0.885000,7.176000,-0.779000,3.939000,29.94
0.296133,0.385000,-0.242000,-0.902000,7.038000,1.206000,4.168000,30.04
0.307067,0.408000,-0.219000,-0.935000,10.656000,6.840000,5.939000,29.89
0.315971,0.437000,-0.193000,-1.024000,23.481000,11.435000,9.328000,29.99
0.325973,0.450000,-0.146000,-1.047000,39.389000,13.374000,13.466000,29.89
0.336002,0.485000,-0.213000,-0.994000,50.626000,10.412000,17.191000,30.04
0.346027,0.501000,-0.376000,-0.962000,54.672000,7.252000,17.985000,29.94
0.356033,0.469000,-0.457000,-0.914000,48.687000,3.496000,18.550000,29.99
0.366063,0.222000,-0.480000,-0.768000,34.718000,2.321000,14.748000,29.94
0.376041,0.094000,-0.701000,-0.765000,11.817000,0.855000,4.214000,29.94
0.386032,0.034000,-0.821000,-0.685000,-8.977000,12.519000,-8.489000,29.94
0.396130,0.073000,-0.869000,-0.767000,-21.481000,30.427000,-20.702000,29.94
0.406097,0.042000,-1.018000,-0.628000,-43.740000,64.229000,-36.626000,29.99
0.416187,-0.056000,-0.686000,-0.706000,-65.450000,114.275000,-74.595000,29.94
0.426106,-0.354000,-1.024000,-2.631000,26.504000,147.756000,-68.641000,29.94
0.436157,0.942000,-2.717000,-1.945000,27.603000,49.221000,-23.206000,30.04
0.446199,-0.248000,-2.916000,-0.645000,-48.870000,22.351000,39.710000,29.99
0.456210,-0.549000,-1.356000,-0.601000,-47.374000,64.412000,72.641000,29.89
0.466248,-0.595000,-0.865000,-0.889000,15.176000,58.412000,88.290000,29.94
0.476249,-0.680000,-0.978000,-0.438000,13.847000,96.855000,91.954000,29.94
0.486347,-0.813000,-0.551000,-0.692000,-11.771000,70.122000,84.122000,29.99
0.496341,-0.917000,-0.015000,-1.078000,-13.511000,56.412000,60.046000,29.99
0.506211,-0.885000,0.014000,-1.297000,-2.916000,39.878000,29.008000,29.99
0.516330,-0.716000,-0.230000,-1.552000,-4.702000,0.076000,9.069000,29.94
0.526436,-0.496000,-0.328000,-1.718000,-0.382000,-49.496000,4.183000,29.94
0.536331,-0.328000,-0.359000,-1.651000,14.870000,-86.550000,8.122000,29.89
0.546521,-0.248000,-0.407000,-1.334000,21.374000,-103.924000,16.672000,29.89
0.556411,-0.126000,-0.421000,-1.046000,15.160000,-107.221000,27.389000,29.94
0.566432,0.026000,-0.466000,-0.974000,5.145000,-106.168000,43.145000,30.04
0.577456,0.167000,-0.475000,-0.916000,-4.260000,-99.191000,61.756000,29.89
0.586538,0.266000,-0.479000,-0.868000,-12.885000,-87.893000,81.649000,29.99
0.596490,0.393000,-0.410000,-0.883000,-23.588000,-74.824000,102.473000,30.04
0.606076,0.435000,-0.273000,-0.822000,-29.695000,-57.603000,118.641000,29.94
0.616129,0.502000,-0.154000,-0.957000,-26.275000,-57.344000,128.427000,29.89
0.626129,0.535000,-0.057000,-1.035000,-22.336000,-49.939000,128.183000,29.99
0.636021,0.602000,0.027000,-1.131000,-11.573000,-47.466000,121.328000,29.94
0.646015,0.740000,0.015000,-1.238000,-1.603000,-48.947000,108.046000,29.94
0.656024,0.836000,0.083000,-1.237000,3.786000,-65.191000,92.046000,29.94
0.666006,0.810000,0.278000,-1.032000,9.618000,-83.710000,70.000000,29.99
0.676049,0.762000,0.403000,-0.845000,17.573000,-89.954000,41.389000,29.94
0.686070,0.788000,0.457000,-0.717000,21.786000,-83.771000,13.435000,29.94
0.696015,0.829000,0.402000,-0.697000,21.908000,-73.115000,-9.313000,29.94
0.706041,0.838000,0.348000,-0.658000,21.481000,-65.099000,-27.954000,29.89
0.716088,0.831000,0.315000,-0.606000,20.275000,-60.244000,-43.435000,29.99
0.726049,0.861000,0.259000,-0.632000,21.634000,-51.069000,-56.336000,29.94
0.736059,0.916000,0.158000,-0.647000,27.511000,-43.954000,-65.053000,29.94
0.746071,0.994000,0.046000,-0.699000,35.008000,-36.870000,-69.679000,29.94
0.756089,1.054000,-0.041000,-0.731000,41.450000,-35.756000,-68.916000,29.89
0.766121,1.042000,-0.063000,-0.686000,45.450000,-37.450000,-63.924000,29.89
0.776104,0.998000,-0.032000,-0.580000,46.290000,-35.115000,-58.763000,29.94
0.786122,0.953000,0.016000,-0.480000,40.626000,-28.260000,-56.458000,29.94
0.796194,0.962000,0.016000,-0.459000,27.878000,-21.069000,-56.794000,29.99
0.806215,0.988000,-0.038000,-0.552000,14.489000,-12.626000,-57.359000,29.89
0.816206,1.046000,-0.092000,-0.631000,6.214000,-10.137000,-54.397000,29.94
0.826275,1.106000,-0.218000,-0.638000,3.084000,-13.069000,-48.565000,30.04
0.836223,1.455000,0.084000,-0.091000,16.885000,59.832000,-42.870000,29.94
0.846306,0.493000,-0.450000,0.535000,21.084000,18.198000,-21.130000,29.89
0.856303,1.066000,-0.975000,-1.200000,28.519000,89.176000,2.076000,29.99
0.866366,0.506000,-1.160000,-1.390000,21.725000,61.405000,34.092000,29.85
0.876356,-0.205000,-0.924000,-0.391000,-5.710000,29.206000,25.298000,30.04
0.886366,-0.633000,-0.437000,-0.406000,-15.466000,30.198000,-4.992000,29.99
0.896477,0.154000,-0.308000,-1.041000,-8.824000,93.817000,-8.000000,29.89
0.906379,0.540000,0.137000,-1.519000,-11.832000,124.000000,-19.985000,29.94
0.916374,0.432000,0.312000,-1.665000,-2.092000,96.168000,-30.763000,29.94
0.926470,0.206000,0.150000,-1.445000,11.618000,63.053000,-37.298000,29.89
0.936485,0.062000,-0.124000,-0.945000,20.763000,48.489000,-42.000000,29.89
0.946406,0.144000,-0.226000,-0.792000,24.107000,48.824000,-44.382000,29.99
0.956436,0.192000,-0.142000,-0.838000,26.229000,72.962000,-49.695000,29.94
0.966369,0.378000,-0.283000,-0.984000,30.809000,98.305000,-53.176000,29.94
0.976515,0.828000,-0.666000,-1.191000,20.992000,86.794000,-50.321000,29.89
0.986515,0.986000,-0.890000,-1.009000,3.817000,54.168000,-31.069000,29.99
0.996477,0.606000,-0.606000,-0.926000,-3.053000,26.061000,-19.267000,29.89
1.006338,0.472000,-0.492000,-1.019000,-10.779000,8.366000,-15.878000,29.94
1.016283,0.509000,-0.525000,-0.911000,-19.954000,9.771000,-12.031000,29.94
1.026113,0.356000,-0.458000,-0.784000,-25.099000,17.954000,-12.076000,29.89
1.036072,0.179000,-0.331000,-0.715000,-23.695000,21.618000,-15.847000,30.04
1.046138,0.240000,-0.394000,-0.787000,-29.435000,27.649000,-21.542000,29.94
1.056018,0.376000,-0.405000,-0.857000,-36.489000,32.260000,-21.740000,29.94
1.066015,0.295000,-0.313000,-0.820000,-42.137000,32.061000,-21.282000,29.99
1.075972,0.296000,-0.408000,-0.807000,-49.084000,28.992000,-22.595000,29.99
1.086060,0.403000,-0.575000,-0.775000,-54.550000,29.969000,-22.779000,29.94
1.095991,0.474000,-0.493000,-0.900000,-59.618000,36.595000,-22.641000,29.94
1.106049,0.415000,-0.345000,-0.906000,-57.832000,43.450000,-22.168000,29.94
1.116195,0.427000,-0.411000,-0.862000,-58.092000,35.573000,-23.847000,29.89
1.126030,0.466000,-0.392000,-0.844000,-62.137000,28.809000,-26.580000,29.99
1.136008,0.457000,-0.403000,-0.920000,-66.595000,26.229000,-27.954000,29.94
1.146076,0.433000,-0.225000,-0.906000,-60.947000,18.931000,-27.389000,29.94
1.156070,0.512000,-0.343000,-0.922000,-57.099000,20.748000,-27.038000,29.94
1.166047,0.434000,-0.243000,-0.920000,-52.550000,17.740000,-27.069000,29.89
1.176063,0.436000,-0.196000,-0.993000,-48.183000,15.939000,-26.427000,29.89
1.186096,0.431000,-0.238000,-0.960000,-45.160000,18.107000,-27.435000,29.94
1.196107,0.400000,-0.258000,-0.876000,-43.527000,20.718000,-29.038000,29.94
1.206151,0.397000,-0.251000,-0.870000,-41.359000,22.504000,-32.305000,29.89
1.216137,0.447000,-0.241000,-0.921000,-39.008000,30.336000,-33.252000,29.89
1.226234,0.409000,-0.191000,-0.913000,-37.969000,38.885000,-30.901000,29.94
1.236674,0.450000,-0.243000,-0.905000,-35.191000,46.275000,-28.809000,29.85
1.246240,0.428000,-0.159000,-0.928000,-30.580000,49.267000,-30.092000,29.89
1.256228,0.604000,-0.466000,-0.795000,-37.420000,65.939000,-28.000000,29.99
1.266288,0.424000,-0.148000,-0.873000,-20.855000,67.618000,-38.916000,29.85
1.276194,0.360000,-0.261000,-0.873000,-37.130000,79.023000,-36.229000,29.94
1.286290,0.483000,-0.226000,-0.885000,-37.450000,97.924000,-35.160000,29.94
1.296360,0.528000,-0.103000,-0.882000,-41.252000,123.679000,-31.145000,29.89
1.306324,0.447000,-0.172000,-0.859000,-42.229000,133.969000,-32.947000,29.89
1.316392,0.417000,-0.130000,-0.846000,-49.115000,148.855000,-35.221000,30.04
1.326355,0.407000,-0.093000,-0.861000,-44.794000,171.053000,-45.344000,29.94
1.336449,0.454000,-0.050000,-0.835000,-47.420000,196.061000,-46.794000,29.99
1.346622,0.443000,-0.087000,-0.781000,-36.702000,200.015000,-46.947000,29.94
1.356337,0.423000,-0.111000,-0.815000,-41.160000,228.275000,-50.214000,29.94
1.366393,0.549000,-0.141000,-0.820000,-47.267000,241.771000,-58.229000,30.04
1.376442,0.595000,-0.247000,-0.919000,-53.954000,256.779000,-65.573000,29.99
1.386456,0.620000,-0.271000,-0.979000,-53.237000,252.962000,-76.504000,29.89
1.396481,0.957000,-0.286000,-1.111000,-39.695000,243.985000,-90.885000,29.85
1.406417,0.971000,-0.467000,-1.158000,-8.962000,271.374000,-58.275000,29.85
1.416528,1.210000,-0.415000,-1.468000,5.298000,296.366000,-65.786000,29.94
1.426422,1.384000,-0.421000,-1.656000,27.130000,317.588000,-110.885000,29.89
1.436500,1.652000,-0.556000,-2.313000,8.244000,362.977000,-146.046000,29.89
1.446157,1.418000,-0.272000,-1.783000,-21.328000,380.092000,-186.092000,29.85
1.456160,1.712000,-0.400000,-2.434000,-64.489000,404.794000,-186.931000,29.94
1.466160,1.323000,-0.327000,-2.722000,-33.878000,303.634000,-172.565000,29.99
1.476188,0.370000,-1.282000,-2.812000,1.267000,219.298000,-133.664000,29.89
1.486159,-0.836000,-4.000000,-4.000000,20.443000,-47.542000,7.282000,29.99
1.496235,0.684000,-3.207000,-3.913000,-132.565000,-180.947000,119.160000,30.04
1.506250,-2.395000,-1.080000,-1.163000,-141.267000,-199.679000,111.924000,29.94
1.516211,-1.352000,-0.474000,-1.948000,-62.000000,-229.710000,62.260000,29.99
1.526230,-0.969000,-0.522000,-1.837000,-35.420000,-214.031000,13.344000,29.99
1.536244,-0.673000,-0.964000,-2.075000,-35.176000,-273.130000,-9.756000,30.04
1.546301,-0.593000,-0.736000,-1.296000,-33.466000,-299.221000,-39.176000,29.94
1.556231,-0.237000,-0.397000,-1.331000,-7.069000,-284.687000,-74.229000,29.99
1.566278,0.353000,-0.550000,-1.449000,50.794000,-315.069000,-78.824000,30.08
1.576384,0.659000,-0.849000,-1.154000,75.573000,-319.756000,-68.947000,30.04
1.586349,0.738000,-1.094000,-0.751000,88.855000,-321.649000,-48.046000,30.04
1.596406,1.191000,-1.318000,-0.788000,83.023000,-280.397000,-4.031000,30.04
1.606400,1.879000,-1.305000,-1.035000,72.534000,-221.618000,51.771000,29.89
1.616403,1.320000,-1.146000,-0.859000,61.847000,-234.198000,96.336000,29.99
1.626430,1.290000,-0.793000,-1.029000,75.649000,-241.481000,129.832000,29.94
1.636462,1.526000,-0.458000,-1.121000,87.908000,-221.313000,147.878000,29.94
1.646482,1.157000,-0.226000,-1.067000,103.298000,-228.992000,147.221000,29.89
1.656536,1.129000,0.008000,-1.180000,110.382000,-213.466000,135.008000,30.04
1.666598,1.074000,0.173000,-1.259000,122.962000,-225.023000,112.229000,29.94
1.676507,1.136000,0.241000,-1.383000,134.229000,-228.168000,87.618000,29.94
1.686572,1.206000,0.281000,-1.388000,148.168000,-231.817000,65.374000,29.99
1.696741,1.222000,0.274000,-1.214000,157.053000,-227.634000,44.565000,29.99
1.706520,1.254000,0.231000,-1.004000,161.191000,-226.092000,28.931000,29.94
1.716681,1.304000,0.157000,-0.883000,162.779000,-207.740000,17.084000,30.04
1.726636,1.397000,0.140000,-0.869000,168.641000,-181.298000,12.672000,29.94
1.736633,1.508000,0.133000,-0.912000,178.382000,-149.191000,17.084000,29.99
1.746836,1.591000,0.220000,-0.958000,192.687000,-123.298000,28.901000,29.89
1.756489,1.649000,0.326000,-1.033000,207.542000,-102.779000,45.710000,29.85
1.766597,1.698000,0.445000,-1.120000,211.511000,-89.191000,66.687000,29.94
1.776677,1.704000,0.647000,-1.121000,207.496000,-80.092000,85.023000,29.89
1.786439,1.806000,0.835000,-1.120000,201.298000,-73.863000,101.313000,29.99
1.796799,1.822000,0.969000,-1.031000,189.328000,-72.000000,108.198000,29.89
1.806662,1.893000,1.091000,-0.808000,167.496000,-69.771000,108.214000,29.94
1.816811,1.916000,1.107000,-0.544000,127.817000,-65.298000,99.359000,29.94
1.826728,1.992000,1.175000,-0.411000,84.412000,-50.672000,86.244000,29.89
1.836773,2.049000,1.227000,-0.354000,46.305000,-33.924000,76.092000,29.99
1.846467,2.074000,1.262000,-0.309000,22.214000,-17.267000,71.817000,29.94
1.856417,1.909000,1.234000,-0.208000,24.107000,-7.832000,77.527000,29.94
1.866464,2.423000,1.721000,0.397000,-52.962000,49.557000,49.160000,29.99
1.876603,3.070000,2.409000,0.405000,-114.153000,188.534000,-2.687000,29.89
1.886712,0.216000,0.870000,-0.546000,-56.641000,121.038000,-14.916000,29.94
1.896533,0.954000,-0.014000,-3.279000,-47.023000,31.359000,-31.313000,29.94
1.906510,-0.648000,-0.714000,-2.149000,-45.725000,-2.763000,-41.756000,29.75
1.916591,-0.663000,-1.044000,-0.083000,-59.435000,-14.504000,-70.076000,29.80
1.926624,0.482000,-0.901000,-0.238000,-46.748000,124.947000,-84.809000,29.89
1.936647,1.052000,-0.596000,-1.055000,-31.344000,170.473000,-60.321000,29.85
1.946754,0.586000,0.099000,-1.620000,-40.473000,161.282000,-54.504000,29.94
1.956409,0.047000,0.563000,-1.502000,-27.557000,117.969000,-70.580000,30.08
1.966603,0.152000,0.414000,-1.386000,2.061000,91.267000,-80.168000,30.04
1.976466,0.406000,-0.145000,-1.131000,23.206000,74.397000,-81.298000,29.85
1.986523,0.659000,-0.680000,-1.001000,25.221000,85.191000,-73.573000,29.85
1.996283,0.959000,-0.978000,-1.080000,6.687000,84.626000,-63.527000,29.80
2.006168,0.927000,-0.747000,-1.057000,-10.427000,83.588000,-47.634000,29.89
2.016116,0.678000,-0.464000,-1.159000,-11.893000,47.252000,-36.473000,29.94
2.026037,0.658000,-0.593000,-0.996000,-20.901000,13.115000,-26.794000,29.94
2.036096,0.572000,-0.656000,-0.775000,-32.458000,-2.122000,-18.412000,29.85
2.046074,0.395000,-0.526000,-0.797000,-39.847000,1.115000,-16.153000,29.89
2.055998,0.257000,-0.407000,-0.795000,-43.817000,11.374000,-20.534000,29.99
2.066029,0.257000,-0.422000,-0.782000,-50.947000,22.702000,-24.977000,29.85
2.076052,0.299000,-0.354000,-0.762000,-63.069000,25.176000,-26.519000,29.94
2.086056,0.267000,-0.306000,-0.784000,-76.336000,19.405000,-26.153000,29.99
2.096084,0.341000,-0.472000,-0.806000,-84.504000,17.420000,-28.275000,29.89
2.106021,0.440000,-0.620000,-0.897000,-82.076000,23.221000,-27.481000,29.94
2.116043,0.414000,-0.460000,-0.898000,-77.557000,27.939000,-27.069000,29.85
2.126030,0.473000,-0.374000,-0.995000,-68.015000,36.366000,-25.985000,29.85
2.136036,0.405000,-0.339000,-0.893000,-63.725000,28.580000,-26.550000,29.89
2.146042,0.411000,-0.424000,-0.806000,-68.672000,15.954000,-29.481000,29.89
2.156118,0.405000,-0.495000,-0.744000,-82.244000,12.076000,-35.435000,29.85
2.166116,0.526000,-0.326000,-1.056000,-78.275000,14.366000,-35.450000,29.85
2.176075,0.386000,-0.429000,-0.787000,-87.145000,31.985000,-39.313000,29.99
2.186120,0.398000,-0.264000,-0.879000,-84.550000,18.336000,-42.656000,29.80
2.196261,0.418000,-0.139000,-1.007000,-74.046000,16.748000,-42.733000,29.94
2.206205,0.456000,-0.216000,-0.973000,-64.092000,18.168000,-41.695000,29.94
2.216210,0.395000,-0.256000,-0.927000,-58.626000,10.992000,-41.573000,29.89
2.226192,0.411000,-0.214000,-0.938000,-53.023000,18.000000,-42.015000,29.89
2.236206,0.369000,-0.228000,-0.927000,-48.229000,30.962000,-37.893000,29.94
2.246311,0.448000,-0.209000,-0.918000,-43.618000,35.573000,-37.237000,29.85
2.256325,0.472000,-0.180000,-0.936000,-43.252000,44.198000,-36.443000,29.94
2.266361,0.533000,-0.396000,-0.810000,-34.702000,56.229000,-35.924000,29.89
2.276418,0.487000,-0.155000,-0.957000,-31.267000,58.382000,-37.664000,29.94
2.286486,0.447000,-0.107000,-0.964000,-37.878000,72.626000,-33.466000,29.94
2.296827,0.415000,-0.029000,-0.916000,-35.817000,94.305000,-26.061000,29.94
2.306328,0.439000,-0.104000,-0.918000,-33.802000,110.687000,-18.412000,29.80
2.316319,0.410000,-0.160000,-0.922000,-34.748000,123.481000,-17.420000,29.80
2.326162,0.419000,-0.144000,-0.886000,-42.031000,151.023000,-19.313000,29.94
2.336184,0.366000,-0.112000,-0.882000,-44.504000,170.901000,-24.275000,29.85
2.346170,0.332000,-0.140000,-0.939000,-35.786000,167.420000,-39.649000,29.89
2.356149,0.511000,-0.117000,-0.832000,-54.550000,209.099000,-41.130000,29.89
2.366139,0.452000,-0.093000,-0.821000,-45.405000,211.878000,-47.924000,29.89
2.376134,0.494000,-0.155000,-0.801000,-48.076000,229.588000,-58.473000,29.94
2.386228,0.632000,-0.126000,-0.887000,-54.809000,238.824000,-71.206000,29.85
2.396273,0.404000,-0.230000,-0.939000,-66.473000,242.534000,-80.504000,29.89
2.406254,0.773000,-0.327000,-1.032000,-72.702000,258.763000,-92.168000,29.89
2.416229,1.088000,-0.381000,-1.274000,-11.756000,226.840000,-71.313000,29.85
2.426216,1.480000,-0.532000,-1.410000,30.565000,290.015000,-61.847000,30.04
2.436357,1.508000,-0.413000,-1.943000,46.977000,342.947000,-107.618000,29.99
2.446471,1.652000,-0.519000,-2.457000,34.137000,390.519000,-153.420000,29.99
2.456229,1.522000,-0.403000,-2.077000,3.756000,404.779000,-192.397000,30.04
2.466273,1.836000,-0.966000,-2.638000,-5.221000,343.084000,-193.939000,29.94
2.476420,1.167000,-1.089000,-2.627000,-20.214000,233.817000,-179.206000,29.94
2.486454,-0.631000,-4.000000,-2.272000,14.947000,123.664000,-77.374000,29.99
2.496454,1.431000,-4.000000,-3.037000,-106.992000,116.260000,87.359000,29.99
2.506524,-0.643000,-3.199000,-2.223000,-222.702000,-122.183000,160.321000,29.94
2.516689,-1.366000,-1.160000,-1.635000,-224.977000,-80.382000,138.260000,29.94
2.526589,-1.314000,-0.322000,-2.328000,-141.496000,-192.122000,93.160000,29.89
2.536631,-1.204000,-0.073000,-2.371000,-77.267000,-221.466000,35.313000,29.89
2.546886,-0.896000,-0.615000,-1.882000,-33.496000,-232.656000,-13.588000,29.85
2.556519,-0.558000,-0.762000,-1.592000,1.695000,-272.351000,-50.473000,29.85
2.566699,-0.193000,-0.719000,-1.456000,20.580000,-332.443000,-67.634000,29.85
2.576519,-0.047000,-0.565000,-1.043000,48.443000,-323.160000,-78.214000,29.99
2.586507,0.177000,-0.631000,-0.863000,75.924000,-306.901000,-75.786000,29.85
2.596407,0.415000,-0.754000,-0.706000,100.656000,-302.550000,-58.779000,29.94
2.606428,0.543000,-0.821000,-0.628000,109.603000,-287.511000,-33.939000,29.94
2.616486,0.612000,-0.800000,-0.669000,124.290000,-265.649000,-3.511000,29.89
2.626507,0.635000,-0.688000,-0.796000,145.237000,-239.954000,24.565000,29.89
2.636542,0.646000,-0.589000,-0.940000,161.817000,-207.267000,50.870000,29.94
2.646333,0.688000,-0.529000,-1.123000,173.557000,-184.962000,73.084000,29.85
2.656449,0.757000,-0.423000,-1.348000,175.023000,-177.496000,91.359000,29.94
2.666441,0.825000,-0.245000,-1.611000,180.229000,-191.969000,104.519000,29.89
2.676446,0.898000,-0.063000,-1.798000,186.947000,-207.435000,111.908000,29.89
2.686528,0.944000,0.069000,-1.868000,189.191000,-204.382000,115.985000,29.85
2.696607,0.990000,0.197000,-1.905000,189.893000,-205.878000,115.115000,29.94
2.706533,1.073000,0.347000,-1.955000,191.573000,-212.504000,112.611000,29.89
2.716954,1.165000,0.468000,-1.930000,194.534000,-223.328000,107.130000,29.89
2.726749,1.328000,0.470000,-1.889000,192.580000,-227.420000,100.947000,29.89
2.736801,1.524000,0.476000,-1.798000,185.786000,-224.305000,96.763000,29.94
2.746823,1.697000,0.627000,-1.658000,179.802000,-213.786000,94.244000,29.85
2.756647,1.846000,0.731000,-1.531000,178.580000,-202.672000,92.168000,29.89
2.766699,2.015000,0.781000,-1.339000,175.878000,-189.939000,93.832000,29.89
2.776727,2.169000,0.847000,-1.179000,170.031000,-174.214000,98.305000,29.85
2.786783,2.317000,0.923000,-1.037000,156.427000,-149.695000,108.534000,29.94
2.796962,2.512000,0.991000,-0.771000,140.366000,-123.405000,122.198000,29.89
2.806823,2.608000,1.083000,-0.378000,121.191000,-93.786000,137.160000,29.89
2.817033,2.678000,1.289000,-0.108000,110.351000,-52.122000,148.031000,29.89
2.826731,2.850000,1.578000,0.053000,107.924000,-9.389000,152.183000,29.94
2.836741,2.927000,1.612000,0.220000,88.687000,30.244000,150.611000,29.85
2.846358,2.854000,1.640000,0.400000,46.061000,62.382000,138.656000,29.89
2.856312,2.512000,1.616000,0.335000,-4.580000,74.183000,108.763000,29.89
2.866412,3.159000,2.907000,0.180000,-27.802000,189.771000,-15.359000,29.85
2.876445,0.397000,-0.105000,-0.008000,-43.649000,153.695000,-52.275000,29.85
2.886372,1.657000,-1.058000,-2.827000,-78.198000,42.122000,-86.687000,29.89
2.896536,-0.491000,-1.493000,-1.307000,-71.802000,6.779000,-60.290000,29.80
2.906373,-0.598000,-1.518000,0.800000,-75.634000,3.359000,-55.679000,29.89
2.916596,0.310000,-0.825000,0.491000,-89.466000,144.061000,-61.466000,29.94
2.926506,1.024000,-0.012000,-1.403000,-55.313000,196.611000,-64.702000,29.94
2.936461,0.736000,0.895000,-2.704000,-56.595000,216.168000,-85.450000,29.89
2.946650,0.371000,1.227000,-2.576000,-35.023000,189.817000,-115.389000,29.94
2.956369,0.548000,0.343000,-1.998000,21.802000,127.542000,-117.511000,29.85
2.966454,0.868000,-0.636000,-1.290000,40.076000,104.168000,-101.145000,29.85
2.976669,0.865000,-1.008000,-0.949000,21.130000,95.282000,-84.718000,29.89
2.986615,0.746000,-0.761000,-0.725000,-9.695000,90.733000,-66.137000,29.99
2.996620,0.847000,-0.632000,-1.021000,-40.992000,84.916000,-61.618000,29.94
3.006591,0.931000,-0.862000,-0.763000,-54.168000,59.649000,-45.313000,29.85
3.016568,0.666000,-0.943000,-0.495000,-69.786000,30.229000,-37.695000,29.85
3.026599,0.462000,-0.848000,-0.606000,-104.824000,5.359000,-39.115000,29.89
3.036601,0.520000,-0.766000,-0.684000,-146.275000,-8.153000,-43.740000,29.99
3.046283,0.487000,-0.763000,-0.774000,-158.870000,-0.061000,-47.191000,29.94
3.056645,0.504000,-0.575000,-1.092000,-149.328000,16.931000,-50.901000,29.85
3.066569,0.443000,-0.068000,-1.434000,-133.756000,36.702000,-48.260000,29.99
3.076670,0.354000,-0.044000,-1.147000,-118.229000,47.786000,-43.954000,29.89
3.086573,0.396000,-0.290000,-0.984000,-102.824000,27.802000,-42.962000,29.89
3.096575,0.471000,-0.104000,-1.169000,-84.336000,14.916000,-41.221000,29.85
3.106613,0.485000,-0.382000,-0.918000,-71.328000,0.977000,-42.901000,29.94
3.116825,0.502000,-0.304000,-0.910000,-61.847000,7.176000,-40.916000,29.89
3.126748,0.439000,-0.266000,-1.022000,-58.656000,18.779000,-41.435000,29.89
3.136659,0.372000,-0.185000,-0.483000,-85.145000,74.718000,-39.237000,29.85
3.146588,0.418000,-0.232000,-0.820000,-60.565000,26.107000,-40.198000,29.85
3.156655,0.460000,-0.256000,-0.905000,-54.382000,19.969000,-39.115000,29.80
3.166685,0.494000,-0.209000,-0.926000,-49.511000,11.099000,-35.893000,29.89
3.176784,0.473000,-0.176000,-0.916000,-44.672000,15.176000,-33.389000,29.89
3.186760,0.444000,-0.141000,-0.916000,-37.740000,12.137000,-30.824000,29.85
3.196656,0.135000,0.292000,-1.125000,-21.023000,8.611000,-41.832000,29.94
3.206515,0.429000,-0.016000,-0.963000,-29.405000,24.153000,-33.267000,29.80
3.216755,0.442000,-0.175000,-0.877000,-23.710000,36.107000,-31.649000,29.99
3.226667,0.382000,-0.129000,-0.901000,-28.992000,48.229000,-29.282000,29.85
3.236797,0.430000,-0.079000,-0.903000,-27.588000,62.641000,-24.504000,29.85
3.246685,0.427000,-0.027000,-0.932000,-22.840000,76.397000,-18.702000,29.89
3.256723,0.429000,-0.100000,-0.888000,-21.863000,87.237000,-12.366000,29.89
3.277417,0.440000,-0.132000,-0.876000,-21.969000,98.824000,-10.519000,29.99
3.278793,0.426000,-0.142000,-0.870000,-24.305000,113.053000,-9.756000,29.85
3.286491,0.452000,-0.119000,-0.851000,-27.435000,129.405000,-10.351000,29.94
3.297003,0.440000,-0.120000,-0.823000,-34.687000,146.656000,-12.992000,29.89
3.305974,0.431000,-0.160000,-0.829000,-42.183000,168.397000,-18.214000,29.85
3.316128,0.432000,-0.179000,-0.793000,-46.244000,179.588000,-27.374000,29.94
3.326080,0.486000,-0.162000,-0.815000,-46.336000,191.130000,-37.557000,29.85
3.336057,0.494000,-0.120000,-0.769000,-33.847000,191.053000,-46.015000,29.99
3.346107,0.545000,-0.095000,-0.764000,-44.824000,216.443000,-52.397000,29.89
3.356096,0.676000,-0.075000,-0.798000,-51.313000,226.947000,-60.473000,29.85
3.366108,0.493000,-0.125000,-0.797000,-51.221000,228.473000,-68.366000,29.85
3.376113,0.721000,-0.150000,-0.914000,-62.458000,243.298000,-75.466000,29.94
3.386096,0.991000,-0.284000,-1.156000,-40.275000,232.122000,-58.183000,29.80
3.396181,1.383000,-0.443000,-1.003000,-31.267000,267.389000,-3.954000,29.89
3.406195,0.913000,-0.533000,-1.747000,19.282000,296.290000,-47.221000,29.85
3.416221,1.666000,-0.586000,-1.692000,81.679000,329.863000,-102.534000,29.94
3.426256,1.802000,-0.448000,-2.495000,49.863000,374.992000,-163.313000,29.99
3.436369,1.361000,-0.313000,-2.052000,-24.366000,418.397000,-238.122000,29.89
3.446333,1.638000,-1.093000,-1.474000,-195.969000,500.260000,-211.802000,29.85
3.456373,1.664000,-0.949000,-2.861000,-64.977000,228.443000,-189.527000,29.85
3.466319,0.214000,-1.935000,-3.293000,-37.710000,217.985000,-145.924000,29.89
3.476327,-0.405000,-4.000000,-3.645000,23.374000,26.427000,-24.427000,29.89
3.486376,0.891000,-3.549000,-4.000000,-106.763000,-179.710000,94.366000,29.89
3.496325,-1.806000,-2.229000,-1.204000,-154.092000,-136.061000,109.679000,29.94
3.506350,-1.163000,-0.936000,-2.147000,-105.069000,-209.206000,94.962000,29.85
3.516546,-0.896000,-0.413000,-2.490000,-26.748000,-229.863000,59.817000,29.89
3.526458,-0.674000,-0.756000,-2.075000,15.008000,-239.053000,23.817000,29.89
3.536529,-0.341000,-0.902000,-1.884000,27.099000,-282.366000,-4.275000,29.75
3.546577,-0.024000,-0.583000,-1.732000,38.168000,-357.542000,-28.122000,29.85
3.556362,0.193000,-0.258000,-1.480000,64.076000,-381.374000,-50.641000,29.89
3.566257,0.393000,-0.044000,-1.187000,102.061000,-363.252000,-71.634000,29.85
3.576188,0.546000,-0.241000,-0.899000,133.603000,-361.344000,-80.366000,29.85
3.586262,0.707000,-0.424000,-0.734000,147.618000,-342.534000,-79.069000,29.85
3.596184,0.921000,-0.609000,-0.861000,156.321000,-316.214000,-60.580000,29.94
3.606166,0.953000,-0.689000,-0.972000,165.939000,-287.863000,-31.893000,29.80
3.616207,1.039000,-0.697000,-1.166000,179.710000,-267.160000,4.626000,29.94
3.626253,1.063000,-0.603000,-1.125000,186.489000,-251.313000,43.603000,29.85
3.636237,1.006000,-0.460000,-1.108000,187.420000,-237.969000,75.817000,29.94
3.646268,0.960000,-0.302000,-1.222000,189.023000,-216.702000,99.481000,29.89
3.656370,0.979000,-0.159000,-1.349000,191.618000,-195.130000,115.618000,29.89
3.666373,0.969000,-0.007000,-1.414000,189.786000,-182.519000,124.382000,29.85
3.676399,1.005000,0.140000,-1.448000,185.786000,-175.252000,122.534000,29.94
3.686347,1.051000,0.206000,-1.575000,180.427000,-174.046000,114.718000,29.94
3.696481,1.180000,0.259000,-1.733000,179.328000,-175.893000,104.229000,29.89
3.706410,1.354000,0.272000,-1.840000,181.267000,-182.916000,96.626000,29.89
3.716452,1.466000,0.304000,-1.771000,184.183000,-191.557000,92.565000,29.85
3.726408,1.500000,0.444000,-1.633000,188.122000,-196.916000,87.924000,29.85
3.736455,1.627000,0.594000,-1.587000,194.870000,-194.122000,81.969000,29.80
3.746541,1.707000,0.722000,-1.503000,198.733000,-184.275000,72.214000,29.89
3.756521,1.868000,0.852000,-1.415000,200.290000,-174.672000,63.191000,29.85
3.766567,2.029000,0.981000,-1.324000,203.802000,-163.588000,57.359000,29.94
3.776563,2.162000,1.069000,-1.042000,205.405000,-149.893000,59.420000,29.94
3.786664,2.327000,1.045000,-0.664000,194.031000,-127.878000,70.534000,29.89
3.796520,2.542000,0.983000,-0.346000,159.695000,-97.206000,88.763000,29.89
3.806465,2.697000,1.063000,-0.062000,114.626000,-60.641000,107.588000,29.85
3.816596,2.760000,1.306000,0.037000,69.847000,-18.840000,120.427000,29.85
3.826556,2.839000,1.472000,0.047000,34.107000,30.122000,126.275000,29.80
3.836702,2.890000,1.537000,0.037000,0.550000,73.008000,130.061000,29.89
3.846495,2.720000,1.576000,0.117000,-36.840000,68.229000,134.565000,29.75
3.856716,1.702000,1.566000,0.118000,-25.908000,35.710000,120.229000,29.94
3.866758,2.582000,2.037000,-0.050000,18.779000,81.420000,41.252000,29.94
3.876831,0.731000,-0.655000,-2.111000,-103.679000,188.565000,3.969000,29.80
3.886796,-0.918000,-0.736000,-2.384000,-97.344000,-21.008000,0.626000,29.89
3.896580,-1.244000,-0.587000,-0.129000,-86.275000,-4.153000,-45.466000,29.85
3.906476,-0.406000,-0.344000,0.166000,-96.015000,109.618000,-84.351000,29.85
3.916560,0.421000,0.067000,-0.787000,-68.168000,188.550000,-89.313000,29.89
3.926517,0.772000,0.318000,-2.201000,-44.870000,223.221000,-91.389000,29.85
3.936869,0.563000,0.597000,-2.420000,-35.069000,215.542000,-103.878000,29.94
3.946683,0.554000,0.412000,-2.185000,7.466000,152.244000,-110.504000,29.85
3.956552,0.644000,-0.022000,-1.695000,40.641000,130.947000,-104.290000,29.85
3.966618,0.678000,-0.601000,-1.164000,59.038000,103.359000,-90.962000,29.89
3.976552,0.747000,-0.952000,-0.632000,44.427000,96.061000,-79.313000,29.85
3.986600,1.204000,-1.367000,-0.788000,12.107000,88.626000,-63.252000,29.85
3.996815,1.021000,-0.993000,-0.779000,-11.893000,71.237000,-46.229000,29.75
4.006686,0.760000,-0.753000,-0.979000,-28.351000,57.924000,-41.069000,29.89
4.016715,0.626000,-0.667000,-0.927000,-41.496000,21.145000,-32.244000,29.89
4.026741,0.463000,-0.689000,-0.758000,-58.626000,3.618000,-26.519000,29.85
4.036764,0.209000,-0.482000,-0.690000,-70.489000,-9.298000,-26.168000,29.94
4.046713,0.080000,-0.307000,-0.666000,-82.809000,-7.817000,-32.061000,29.89
4.056651,0.040000,-0.277000,-0.538000,-103.328000,-4.809000,-39.908000,29.80
4.066640,0.251000,-0.452000,-0.546000,-131.649000,40.794000,-50.015000,29.80
4.076792,0.595000,-0.688000,-1.050000,-127.603000,56.977000,-46.977000,29.85
4.086819,0.540000,-0.403000,-1.028000,-112.031000,58.656000,-40.611000,29.94
4.096866,0.486000,-0.416000,-1.092000,-98.885000,42.214000,-39.756000,29.89
4.106537,0.508000,-0.424000,-0.948000,-92.366000,15.069000,-35.160000,29.89
4.116642,0.441000,-0.426000,-0.846000,-87.374000,-2.672000,-37.221000,29.94
4.126708,0.415000,-0.498000,-0.763000,-95.328000,-14.015000,-41.771000,29.85
4.136783,0.463000,-0.441000,-0.990000,-108.168000,0.870000,-49.618000,29.80
4.146730,0.302000,-0.295000,-0.819000,-106.397000,-5.084000,-50.809000,29.89
4.156578,0.436000,-0.394000,-0.822000,-107.802000,-1.496000,-55.511000,29.89
4.166787,0.440000,-0.067000,-1.104000,-95.542000,2.397000,-54.870000,29.94
4.176648,0.486000,-0.170000,-1.014000,-82.718000,13.710000,-46.061000,29.94
4.186736,0.436000,-0.164000,-1.046000,-56.397000,0.198000,-44.244000,29.80
4.196704,0.386000,-0.147000,-0.952000,-56.046000,11.832000,-42.977000,29.89
4.206540,0.414000,-0.083000,-0.983000,-47.786000,24.489000,-41.221000,29.85
4.216789,0.421000,-0.074000,-0.966000,-39.954000,37.863000,-35.267000,29.85
4.226747,0.432000,-0.087000,-0.930000,-31.496000,43.466000,-30.733000,29.85
4.236786,0.432000,-0.100000,-0.959000,-24.595000,44.443000,-28.611000,29.89
4.246643,0.446000,-0.630000,-0.677000,3.145000,40.092000,-32.611000,29.89
4.256532,0.386000,0.043000,-1.005000,-23.527000,55.282000,-28.580000,29.75
4.266447,0.458000,-0.270000,-0.908000,-22.947000,67.786000,-24.214000,29.85
4.276313,0.424000,-0.099000,-0.926000,-26.916000,90.122000,-21.221000,29.80
4.286641,0.428000,-0.186000,-0.892000,-29.863000,100.611000,-17.130000,29.94
4.296238,0.471000,-0.211000,-0.879000,-35.603000,119.679000,-15.053000,29.85
4.306017,0.416000,-0.196000,-0.890000,-39.511000,132.519000,-17.099000,29.94
4.316194,0.423000,-0.143000,-0.833000,-46.824000,154.595000,-21.282000,29.89
4.326016,0.327000,-0.095000,-0.794000,-55.618000,176.641000,-30.168000,29.80
4.336003,0.382000,-0.085000,-0.803000,-63.634000,201.374000,-39.084000,29.85
4.346021,0.448000,-0.050000,-0.859000,-60.366000,205.511000,-42.443000,29.75
4.358038,0.404000,-0.142000,-0.817000,-52.336000,233.053000,-52.290000,29.94
4.366012,0.418000,-0.131000,-0.838000,-55.664000,250.305000,-61.710000,29.89
4.378809,0.655000,-0.107000,-0.932000,-60.397000,284.031000,-76.656000,29.89
4.385979,0.513000,-0.223000,-0.956000,-69.420000,276.473000,-92.489000,29.85
4.396311,1.237000,-0.282000,-1.388000,-52.412000,207.588000,-62.092000,29.85
4.406069,1.018000,-0.318000,-1.236000,-74.412000,323.496000,-19.725000,29.89
4.416026,1.168000,-0.637000,-1.617000,-41.252000,331.847000,-67.573000,29.89
4.426784,1.660000,-0.531000,-2.039000,0.611000,350.305000,-118.702000,29.75
4.437395,1.948000,-0.463000,-2.037000,-47.466000,469.817000,-170.565000,29.94
4.450073,1.791000,-0.539000,-2.025000,-33.756000,472.550000,-221.038000,29.85
4.456381,2.139000,-0.546000,-2.762000,-58.321000,433.771000,-217.679000,29.80
4.468911,0.922000,-0.879000,-2.741000,-49.710000,270.504000,-193.878000,29.80
4.481185,0.381000,-1.201000,-2.117000,-28.061000,169.863000,-139.649000,29.85
4.488924,-0.521000,-4.000000,-3.411000,38.092000,92.000000,33.817000,29.85
4.499607,1.834000,-3.943000,-4.000000,-117.374000,-44.458000,164.702000,29.80
4.506435,-1.445000,-2.597000,-0.844000,-202.855000,-83.206000,194.656000,29.80
4.516892,-0.873000,-0.866000,-1.966000,-117.206000,-129.618000,190.519000,29.85
4.528939,-0.528000,-0.087000,-2.350000,-17.557000,-177.527000,156.427000,29.85
4.536963,-0.779000,-0.482000,-1.432000,6.534000,-94.611000,104.107000,29.89
4.546639,-0.479000,-0.707000,-1.731000,-4.107000,-234.595000,50.992000,29.89
4.556722,-0.125000,-0.338000,-1.885000,-47.221000,-289.176000,-8.473000,29.94
4.566668,0.073000,0.023000,-1.976000,-26.427000,-338.260000,-57.893000,30.04
4.576692,0.309000,0.162000,-1.821000,33.038000,-375.252000,-93.038000,29.89
4.586773,0.580000,0.003000,-1.519000,88.366000,-402.504000,-109.374000,29.89
4.596725,0.741000,-0.237000,-0.973000,119.023000,-407.878000,-112.473000,29.75
4.606592,0.747000,-0.479000,-0.775000,133.237000,-412.687000,-103.191000,29.85
4.616733,0.948000,-0.584000,-0.695000,139.740000,-368.824000,-82.656000,29.85
4.626820,0.986000,-0.657000,-0.603000,143.069000,-328.962000,-50.015000,29.89
4.636737,0.933000,-0.693000,-0.606000,158.137000,-292.275000,-14.183000,29.89
4.646813,0.987000,-0.659000,-0.696000,184.092000,-257.588000,24.443000,29.75
4.656554,1.074000,-0.630000,-0.900000,210.015000,-226.702000,62.137000,29.94
4.666724,1.222000,-0.756000,-1.081000,218.183000,-194.366000,98.366000,29.80
4.676745,1.466000,-0.844000,-1.201000,203.420000,-168.809000,142.382000,29.80
4.686723,1.572000,-0.744000,-1.288000,185.924000,-162.031000,187.939000,29.85
4.696801,1.561000,-0.474000,-1.408000,175.939000,-153.710000,224.626000,29.85
4.706546,1.621000,-0.134000,-1.584000,178.412000,-141.832000,252.260000,29.89
4.716773,1.770000,0.352000,-1.771000,184.290000,-128.290000,270.122000,29.80
4.726727,1.765000,0.565000,-1.866000,179.802000,-140.718000,256.901000,29.89
4.736877,1.929000,0.793000,-1.945000,159.359000,-165.359000,226.336000,29.94
4.746774,2.043000,0.998000,-1.880000,146.382000,-197.176000,187.313000,29.75
4.756695,2.189000,1.039000,-1.709000,148.397000,-218.565000,149.191000,29.80
4.766792,2.377000,0.999000,-1.316000,159.466000,-222.779000,117.511000,29.89
4.776748,2.495000,1.012000,-0.792000,170.779000,-209.771000,93.130000,29.94
4.786760,2.585000,1.162000,-0.347000,183.588000,-172.947000,71.649000,29.85
4.796707,2.666000,1.387000,-0.107000,196.870000,-120.824000,54.397000,29.89
4.806636,2.720000,1.622000,-0.005000,211.023000,-75.832000,41.053000,29.80
4.816628,2.747000,1.705000,0.190000,202.137000,-39.237000,29.893000,29.85
4.826591,2.812000,1.549000,0.314000,148.076000,-10.489000,17.786000,29.85
4.836563,2.852000,1.414000,0.464000,63.618000,13.160000,6.290000,29.85
4.846771,2.881000,1.174000,0.405000,-6.733000,31.908000,-2.427000,29.80
4.856596,0.983000,-0.719000,1.163000,-56.809000,71.344000,26.992000,29.85
4.866574,0.922000,0.615000,0.540000,-145.405000,51.511000,-3.756000,29.85
4.876636,1.019000,-0.847000,-2.557000,-114.901000,129.008000,28.031000,29.85
4.886666,-0.435000,-1.530000,-2.134000,-134.168000,58.550000,47.695000,29.80
4.896927,-1.016000,-0.126000,-0.740000,-113.954000,44.916000,9.298000,29.80
4.906546,-0.782000,0.981000,-0.317000,-101.695000,132.519000,-74.015000,29.94
4.916583,-0.151000,1.381000,-0.871000,-83.435000,176.046000,-114.733000,29.85
4.926493,0.813000,0.673000,-2.798000,-38.595000,188.076000,-118.427000,29.80
4.936854,0.824000,0.118000,-1.977000,-19.450000,180.290000,-120.733000,29.89
4.946819,0.713000,-0.260000,-1.411000,15.542000,127.176000,-116.443000,29.80
4.956675,0.988000,-0.673000,-1.474000,23.695000,126.901000,-103.130000,29.85
4.966649,0.942000,-0.566000,-1.346000,17.313000,92.611000,-88.672000,29.75
4.976483,0.778000,-0.636000,-1.012000,-3.893000,58.473000,-72.763000,29.89
4.986373,0.667000,-0.640000,-0.864000,-21.511000,52.046000,-65.634000,29.89
4.996461,1.011000,-0.975000,-0.817000,-33.740000,40.580000,-47.985000,29.94
5.006373,0.830000,-0.820000,-0.829000,-49.649000,26.061000,-34.504000,29.75
5.016460,0.590000,-0.609000,-0.858000,-61.786000,4.809000,-28.137000,29.89
5.026537,0.426000,-0.554000,-0.697000,-84.412000,-16.489000,-26.153000,29.80
5.036471,0.308000,-0.577000,-0.639000,-110.534000,-26.794000,-27.115000,29.89
5.046519,0.230000,-0.563000,-0.611000,-130.626000,-25.588000,-32.733000,29.75
5.056383,0.275000,-0.611000,-0.770000,-138.366000,-7.527000,-40.840000,29.85
5.066526,0.410000,-0.476000,-0.927000,-138.916000,10.947000,-46.336000,29.89
5.076494,0.516000,-0.287000,-1.114000,-130.000000,32.122000,-46.580000,29.89
5.086528,0.399000,-0.170000,-1.072000,-122.489000,61.924000,-46.687000,29.75
5.096450,0.437000,-0.334000,-0.953000,-105.313000,21.771000,-39.969000,29.85
5.106515,0.402000,-0.333000,-0.917000,-98.046000,-0.382000,-38.214000,29.89
5.116439,0.427000,-0.157000,-1.039000,-81.908000,-9.878000,-42.855000,29.89
5.126568,0.483000,-0.425000,-0.869000,-79.374000,-8.672000,-46.443000,29.85
5.136609,0.480000,-0.284000,-0.911000,-85.985000,7.160000,-49.313000,29.85
5.146594,0.379000,-0.203000,-0.940000,-90.855000,45.618000,-42.427000,29.85
5.156503,0.446000,-0.174000,-0.949000,-72.977000,24.305000,-44.824000,29.89
5.166511,0.438000,-0.150000,-0.963000,-56.702000,12.046000,-41.588000,29.94
5.176556,0.425000,-0.119000,-0.919000,-47.115000,4.412000,-36.626000,29.75
5.186617,0.422000,-0.086000,-0.967000,-42.779000,9.053000,-33.954000,29.75
5.196710,0.425000,-0.113000,-0.914000,-39.969000,20.901000,-29.985000,29.80
5.206523,0.388000,-0.081000,-0.970000,-35.924000,26.611000,-26.107000,29.80
5.216554,0.415000,-0.130000,-0.917000,-29.878000,25.969000,-23.328000,29.75
5.226566,0.394000,-0.114000,-0.896000,-27.008000,30.718000,-22.489000,29.85
5.236753,0.452000,-0.129000,-0.939000,-23.069000,32.672000,-22.550000,29.89
5.246775,0.522000,-0.308000,-0.759000,-23.603000,40.504000,-23.069000,29.80
5.256572,0.452000,-0.047000,-0.922000,-21.359000,44.947000,-24.641000,29.85
5.266763,0.434000,-0.143000,-0.904000,-22.137000,46.824000,-21.527000,29.85
5.276683,0.451000,-0.086000,-0.947000,-12.794000,39.344000,-19.542000,29.85
5.286684,0.399000,-0.092000,-0.946000,-24.107000,66.763000,-18.840000,29.71
5.296459,0.430000,-0.154000,-0.923000,-30.000000,82.260000,-18.153000,29.80
5.306091,0.445000,-0.171000,-0.919000,-35.023000,90.885000,-15.878000,29.94
5.316163,0.475000,-0.181000,-0.890000,-34.748000,110.244000,-14.550000,29.85
5.326827,0.447000,-0.115000,-0.909000,-38.626000,125.969000,-15.160000,29.80
5.336354,0.366000,-0.066000,-0.868000,-48.122000,151.344000,-15.924000,29.89
5.346573,0.317000,-0.052000,-0.823000,-59.725000,176.550000,-25.969000,29.85
5.356763,0.339000,-0.113000,-0.856000,-73.008000,197.664000,-37.344000,29.85
5.366639,0.409000,-0.109000,-0.901000,-66.473000,210.061000,-47.237000,29.94
5.376440,0.418000,-0.097000,-0.804000,-62.412000,228.504000,-61.130000,29.80
5.386658,0.486000,-0.054000,-0.810000,-69.435000,250.290000,-77.725000,29.80
5.396260,0.530000,-0.158000,-0.844000,-79.374000,279.282000,-96.504000,29.85
5.406435,0.655000,-0.157000,-0.919000,-96.122000,280.947000,-114.885000,29.94
5.416193,1.049000,-0.037000,-1.293000,-62.290000,211.710000,-94.122000,29.99
5.426370,1.021000,-0.411000,-1.373000,-99.664000,310.489000,-61.008000,29.85
5.436190,1.123000,-0.403000,-1.415000,-126.901000,350.977000,-103.069000,29.85
5.446669,1.493000,-0.144000,-1.865000,-165.969000,438.977000,-159.115000,29.85
5.456778,1.839000,-0.191000,-1.856000,-134.321000,478.168000,-198.092000,29.94
5.468881,2.293000,-0.585000,-3.000000,-9.542000,396.504000,-217.099000,29.89
5.476901,2.047000,-0.754000,-2.527000,-44.351000,406.412000,-244.504000,29.85
5.486346,1.200000,-0.884000,-2.404000,-67.023000,242.931000,-221.557000,29.75
5.498690,1.060000,-1.324000,-1.993000,-101.817000,156.092000,-198.794000,29.94
5.506366,-1.730000,-1.936000,-3.179000,-35.145000,82.519000,-70.000000,29.80
5.516529,3.161000,-2.813000,-4.000000,-11.282000,52.366000,17.450000,29.89
5.530241,-0.409000,-2.999000,-1.531000,-144.901000,-83.221000,75.573000,29.85
5.536919,-0.743000,-1.838000,-0.616000,-143.023000,-225.084000,98.168000,29.85
5.546943,-0.220000,-1.027000,-1.279000,-117.511000,-272.382000,116.763000,29.89
5.557686,-0.338000,-0.708000,-1.453000,-28.504000,-195.603000,142.702000,29.89
5.566980,-0.257000,-0.825000,-1.324000,33.893000,-176.992000,141.313000,29.80
5.577006,-0.163000,-0.831000,-1.213000,33.405000,-165.145000,127.328000,29.75
5.586982,-0.115000,-0.687000,-1.013000,-1.053000,-192.015000,100.962000,29.85
5.597109,0.021000,-0.246000,-1.233000,-16.855000,-236.107000,72.076000,29.89
5.606948,0.165000,0.113000,-1.309000,15.817000,-286.183000,42.382000,29.80
5.616860,0.323000,0.211000,-1.273000,65.206000,-302.931000,14.901000,29.85
5.626702,0.493000,0.038000,-1.234000,115.435000,-307.634000,-5.099000,29.85
5.636752,0.749000,-0.166000,-1.203000,147.847000,-311.954000,-14.107000,29.80
5.646641,0.889000,-0.313000,-1.091000,160.427000,-313.237000,-15.557000,29.80
5.656770,0.954000,-0.383000,-1.098000,172.412000,-318.702000,-5.191000,29.80
5.667007,1.035000,-0.300000,-1.083000,185.832000,-302.244000,17.023000,29.85
5.676998,1.018000,-0.278000,-1.033000,202.198000,-288.916000,46.763000,29.85
5.686589,1.063000,-0.251000,-1.095000,215.374000,-266.840000,72.794000,29.89
5.696432,1.108000,-0.249000,-1.173000,217.160000,-242.534000,96.794000,29.80
5.706322,1.143000,-0.208000,-1.292000,214.748000,-227.206000,115.160000,29.85
5.716584,1.110000,-0.093000,-1.400000,216.366000,-221.069000,125.939000,29.85
5.726512,1.115000,-0.000000,-1.431000,218.351000,-217.435000,128.840000,29.89
5.736371,1.152000,0.144000,-1.420000,222.885000,-198.748000,126.000000,29.80
5.746359,1.418000,0.225000,-1.570000,226.748000,-176.733000,119.588000,29.89
5.756377,1.781000,0.184000,-1.730000,223.557000,-159.053000,117.893000,29.94
5.766363,2.105000,0.172000,-1.827000,212.260000,-159.634000,123.679000,29.85
5.776526,2.238000,0.358000,-1.724000,199.069000,-170.672000,130.107000,29.89
5.786397,2.217000,0.649000,-1.529000,193.695000,-185.511000,129.832000,29.85
5.796458,2.216000,0.986000,-1.284000,196.489000,-181.023000,120.580000,29.75
5.806465,2.322000,1.204000,-1.178000,204.962000,-168.565000,109.038000,29.75
5.816384,2.477000,1.361000,-0.962000,209.557000,-145.221000,98.534000,29.80
5.826564,2.581000,1.415000,-0.581000,199.954000,-117.924000,91.527000,29.80
5.836432,2.670000,1.526000,-0.175000,177.008000,-93.634000,84.366000,29.85
5.846554,2.704000,1.623000,-0.023000,135.954000,-65.359000,79.038000,29.75
5.856374,2.682000,1.761000,0.271000,94.305000,-39.649000,69.878000,29.85
5.866544,2.708000,1.667000,0.310000,57.924000,-6.321000,59.695000,29.80
5.876461,2.673000,1.488000,0.241000,16.489000,30.473000,55.115000,29.80
5.886483,2.439000,1.320000,0.049000,20.947000,-91.389000,73.191000,29.85
5.896407,2.532000,2.168000,0.335000,-92.260000,93.084000,-15.053000,29.85
5.906559,0.286000,0.056000,-1.866000,-98.244000,194.565000,-18.626000,29.89
5.916437,0.116000,-1.279000,-2.808000,-76.901000,-30.473000,-5.649000,29.89
5.926428,-1.093000,-0.764000,-0.646000,-57.191000,27.527000,-27.817000,29.89
5.936472,-0.667000,-0.337000,0.072000,-57.695000,35.649000,-82.336000,29.75
5.946333,0.645000,0.094000,-0.735000,-68.748000,157.405000,-89.313000,29.85
5.956232,0.788000,0.195000,-1.687000,-42.229000,168.626000,-78.656000,29.80
5.966254,0.509000,0.152000,-2.006000,-30.214000,165.939000,-86.336000,29.89
5.978280,0.489000,0.053000,-1.792000,-2.779000,126.092000,-92.977000,29.85
5.988525,0.615000,-0.165000,-1.441000,26.779000,96.519000,-83.710000,29.75
5.998163,0.567000,-0.450000,-1.188000,39.603000,90.412000,-74.504000,29.89
6.005934,0.515000,-0.587000,-0.922000,35.588000,92.198000,-71.237000,29.80
6.016081,0.858000,-0.940000,-0.909000,12.824000,81.435000,-62.779000,29.89
6.026005,0.897000,-0.894000,-0.804000,1.756000,74.244000,-49.496000,29.85
6.035964,0.916000,-0.863000,-0.957000,-11.053000,51.038000,-36.336000,29.85
6.045952,0.684000,-0.669000,-0.906000,-23.053000,21.496000,-27.511000,29.80
6.055998,0.534000,-0.670000,-0.820000,-34.901000,1.191000,-21.786000,29.89
6.065948,0.446000,-0.631000,-0.804000,-46.214000,-7.847000,-20.336000,29.85
6.075991,0.340000,-0.550000,-0.787000,-52.641000,0.565000,-22.382000,29.85
6.085991,0.242000,-0.435000,-0.759000,-55.664000,5.221000,-26.061000,29.89
6.096136,0.231000,-0.414000,-0.736000,-63.481000,10.031000,-30.015000,29.80
6.106101,0.275000,-0.391000,-0.702000,-76.489000,11.466000,-30.412000,29.94
6.116105,0.243000,-0.411000,-0.629000,-91.405000,12.504000,-32.672000,29.75
6.126030,0.325000,-0.538000,-0.682000,-104.550000,16.626000,-34.153000,29.75
6.136051,0.407000,-0.636000,-0.827000,-107.511000,24.748000,-36.824000,29.80
6.146133,0.415000,-0.488000,-0.785000,-118.611000,25.344000,-38.489000,29.75
6.156163,0.526000,-0.453000,-0.973000,-121.282000,32.198000,-39.053000,29.75
6.166235,0.466000,-0.387000,-0.921000,-118.412000,23.679000,-37.023000,29.94
6.176140,0.476000,-0.394000,-0.862000,-111.130000,3.557000,-37.588000,29.85
6.186277,0.406000,-0.401000,-0.845000,-111.511000,-9.618000,-39.191000,29.80
6.196276,0.498000,-0.228000,-1.155000,-100.244000,-13.603000,-39.954000,29.85
6.206165,0.349000,-0.372000,-0.826000,-93.710000,-17.298000,-45.282000,29.75
6.216450,0.372000,-0.332000,-0.948000,-89.786000,-7.252000,-51.618000,29.75
6.226376,0.398000,-0.076000,-0.899000,-81.221000,0.458000,-55.618000,29.80
6.236407,0.439000,-0.145000,-1.002000,-77.435000,13.405000,-52.763000,29.80
6.246427,0.368000,-0.193000,-0.950000,-68.000000,17.878000,-49.115000,29.85
6.256343,0.451000,-0.169000,-1.018000,-46.031000,-0.733000,-43.420000,29.75
6.266536,0.402000,-0.165000,-0.941000,-61.771000,33.954000,-42.321000,29.89
6.276587,0.377000,-0.180000,-0.861000,-54.992000,32.458000,-36.626000,29.80
6.286561,0.472000,-0.139000,-0.928000,-39.359000,29.893000,-34.397000,29.89
6.296642,0.429000,-0.117000,-0.920000,-29.313000,31.359000,-34.183000,29.85
6.306544,0.357000,-0.620000,-0.650000,-20.107000,33.847000,-38.290000,29.85
6.316713,0.397000,-0.029000,-0.944000,-44.534000,46.565000,-36.031000,29.71
6.326519,0.477000,-0.253000,-0.894000,-34.519000,49.664000,-31.420000,29.80
6.336561,0.417000,-0.178000,-0.961000,-42.794000,67.481000,-30.412000,29.94
6.346546,0.430000,-0.174000,-0.938000,-50.626000,83.252000,-30.015000,29.85
6.356536,0.438000,-0.171000,-0.932000,-52.962000,90.076000,-26.748000,29.80
6.366602,0.434000,-0.100000,-0.936000,-45.084000,102.290000,-30.214000,29.80
6.376690,0.348000,-0.070000,-0.851000,-66.824000,154.611000,-30.656000,29.85
6.386661,0.306000,-0.060000,-0.816000,-75.481000,174.550000,-39.939000,29.85
6.396694,0.282000,0.017000,-0.859000,-83.344000,200.061000,-48.473000,29.85
6.406486,0.370000,0.040000,-0.908000,-86.336000,227.099000,-53.206000,29.80
6.416583,0.406000,0.007000,-0.959000,-76.947000,238.840000,-64.794000,29.80
6.426541,0.366000,-0.099000,-0.820000,-80.015000,256.076000,-79.481000,29.75
6.436642,0.530000,-0.048000,-0.803000,-92.885000,296.489000,-100.779000,29.85
6.446683,0.449000,-0.000000,-1.010000,-103.847000,231.115000,-130.595000,29.80
6.456661,1.000000,-0.265000,-1.056000,-101.267000,288.992000,-72.580000,29.75
6.466803,0.927000,-0.491000,-1.317000,-132.382000,301.878000,-73.878000,29.75
6.476717,1.354000,-0.507000,-1.390000,-151.954000,379.359000,-102.840000,29.85
6.486746,1.829000,-0.427000,-2.264000,-123.466000,422.122000,-152.000000,29.75
6.496713,2.040000,-0.490000,-2.258000,-37.328000,401.221000,-195.389000,29.80
6.506656,1.779000,-0.301000,-2.052000,-103.313000,409.466000,-240.595000,29.85
6.516724,1.458000,-0.679000,-2.226000,-155.481000,379.954000,-250.733000,29.85
6.526692,0.857000,-1.139000,-2.616000,-162.076000,226.595000,-205.924000,29.75
6.536940,-1.577000,-2.967000,-3.526000,-67.893000,56.229000,-32.427000,29.80
6.546762,2.512000,-3.831000,-4.000000,15.832000,68.718000,83.939000,29.80
6.556185,-0.443000,-3.167000,-2.217000,-73.771000,-223.664000,169.924000,29.75
6.566319,-1.040000,-1.516000,-1.097000,-57.603000,-258.779000,179.328000,29.85
6.576865,-0.661000,-0.973000,-1.127000,-42.565000,-266.489000,179.344000,29.80
6.587020,-0.576000,-0.830000,-1.475000,-3.786000,-192.580000,163.450000,29.89
6.596979,-0.386000,-0.996000,-1.466000,5.008000,-140.870000,137.878000,29.89
6.606781,-0.117000,-1.020000,-1.651000,9.969000,-182.840000,125.023000,29.85
6.616915,0.208000,-0.906000,-1.599000,7.786000,-241.802000,115.328000,29.85
6.626957,0.304000,-0.690000,-1.375000,3.664000,-276.351000,109.679000,29.80
6.636905,0.360000,-0.383000,-1.334000,28.046000,-342.672000,99.053000,29.80
6.647576,0.529000,-0.237000,-1.311000,54.855000,-357.695000,76.458000,29.75
6.656855,0.716000,-0.217000,-1.344000,80.550000,-355.389000,52.489000,29.75
6.666917,0.782000,-0.246000,-1.298000,99.954000,-347.038000,27.603000,29.80
6.676904,0.835000,-0.184000,-1.262000,124.305000,-344.412000,5.542000,29.89
6.686761,1.004000,-0.236000,-1.208000,149.527000,-342.534000,-8.427000,29.80
6.696889,1.173000,-0.342000,-1.174000,170.595000,-339.237000,-10.763000,29.85
6.706809,1.220000,-0.438000,-1.118000,191.298000,-325.786000,-4.000000,29.85
6.716679,1.287000,-0.470000,-1.045000,209.160000,-297.282000,8.885000,29.80
6.726787,1.298000,-0.490000,-1.045000,222.641000,-263.878000,23.069000,29.80
6.736759,1.380000,-0.514000,-1.102000,228.214000,-229.832000,42.061000,29.85
6.746868,1.469000,-0.540000,-1.158000,228.687000,-192.061000,64.229000,29.85
6.756646,1.600000,-0.499000,-1.278000,226.779000,-161.466000,90.168000,29.71
6.766824,1.703000,-0.362000,-1.390000,225.511000,-138.519000,116.687000,29.85
6.776724,1.819000,-0.080000,-1.513000,230.412000,-125.191000,136.473000,29.85
6.786714,1.880000,0.184000,-1.548000,238.168000,-126.672000,148.992000,29.85
6.796707,1.954000,0.462000,-1.602000,239.557000,-115.756000,153.969000,29.85
6.806667,2.037000,0.708000,-1.539000,246.855000,-115.756000,154.031000,29.89
6.816757,2.151000,0.911000,-1.371000,261.924000,-122.412000,149.954000,29.85
6.826301,2.280000,1.146000,-1.123000,260.504000,-97.069000,141.298000,29.85
6.836720,2.480000,1.294000,-0.915000,250.916000,-75.786000,126.824000,29.85
6.846619,2.598000,1.483000,-0.620000,230.305000,-64.763000,105.756000,29.89
6.856738,2.725000,1.564000,-0.415000,201.771000,-49.802000,81.771000,29.80
6.866667,2.770000,1.707000,-0.236000,166.840000,-42.626000,64.290000,29.85
6.882054,2.767000,1.803000,0.076000,123.557000,-36.244000,52.809000,29.85
6.886806,2.794000,1.607000,0.157000,81.863000,2.702000,44.382000,29.89
6.896901,2.692000,1.482000,0.238000,20.229000,31.573000,43.237000,29.71
6.906604,2.557000,1.392000,-0.098000,1.832000,48.916000,38.840000,29.80
6.916693,1.885000,-0.703000,1.271000,-128.336000,192.687000,70.565000,29.75
6.926633,0.766000,0.019000,-1.594000,-126.733000,99.313000,77.863000,29.85
6.936759,0.000000,-1.084000,-2.241000,-100.977000,26.824000,85.069000,29.89
6.946831,-1.487000,-0.826000,-0.732000,-105.008000,2.183000,50.382000,29.80
6.956628,-1.127000,0.796000,-0.783000,-119.206000,37.847000,-15.557000,29.85
6.966693,0.256000,0.523000,-1.348000,-78.809000,122.092000,-63.863000,29.75
6.976569,0.519000,0.462000,-1.447000,-80.962000,111.939000,-77.160000,29.80
6.986736,0.161000,0.257000,-1.689000,-55.053000,126.015000,-93.069000,29.80
6.996464,0.222000,-0.105000,-1.828000,-32.076000,110.214000,-103.634000,29.85
7.006356,0.528000,-0.197000,-1.710000,-4.763000,91.191000,-98.962000,29.75
7.016239,0.520000,-0.126000,-1.453000,21.282000,96.794000,-86.870000,29.75
7.026075,0.305000,-0.146000,-1.278000,44.046000,97.924000,-82.931000,29.80
7.036023,0.545000,-0.555000,-0.984000,54.626000,96.427000,-78.382000,29.80
7.045986,1.019000,-1.215000,-1.018000,37.344000,83.557000,-68.092000,29.85
7.055973,1.113000,-1.404000,-0.473000,12.092000,63.130000,-43.389000,29.85
7.065981,0.758000,-1.193000,-0.559000,-14.702000,47.038000,-34.031000,29.80
7.075984,0.568000,-0.804000,-0.770000,-36.824000,24.092000,-33.191000,29.85
7.085979,0.468000,-0.760000,-0.701000,-55.420000,2.763000,-34.748000,29.75
7.096086,0.452000,-0.755000,-0.664000,-70.260000,-1.450000,-32.733000,29.75
7.105981,0.238000,-0.506000,-0.684000,-78.763000,-2.351000,-34.031000,29.89
7.115977,0.076000,-0.321000,-0.681000,-88.397000,-4.901000,-38.336000,29.80
7.125945,-0.030000,-0.226000,-0.474000,-109.267000,-8.122000,-44.137000,29.94
7.136001,0.011000,-0.311000,-0.396000,-141.603000,10.779000,-52.290000,29.85
7.146018,0.288000,-0.584000,-0.580000,-163.252000,45.679000,-58.672000,29.89
7.156021,0.590000,-0.777000,-0.934000,-157.863000,77.374000,-56.656000,29.80
7.166011,0.696000,-0.448000,-1.188000,-141.817000,100.565000,-51.557000,29.75
7.176035,0.518000,-0.338000,-1.175000,-107.221000,40.092000,-45.756000,29.75
7.186068,0.574000,-0.557000,-0.922000,-99.420000,14.824000,-40.916000,29.71
7.196056,0.516000,-0.429000,-0.949000,-99.038000,0.397000,-33.863000,29.80
7.206092,0.408000,-0.402000,-0.868000,-92.809000,-12.351000,-34.977000,29.80
7.216114,0.543000,-0.276000,-1.082000,-86.809000,2.427000,-34.916000,29.94
7.226210,0.350000,-0.122000,-0.904000,-77.496000,11.359000,-35.008000,29.85
7.236176,0.376000,-0.339000,-0.892000,-78.992000,12.092000,-36.794000,29.80
7.246163,0.475000,-0.227000,-0.963000,-73.832000,13.954000,-39.298000,29.80
7.256219,0.324000,-0.219000,-0.960000,-62.794000,29.634000,-42.427000,29.85
7.266285,0.285000,-0.186000,-0.824000,-62.153000,25.908000,-36.183000,29.85
7.276341,0.424000,-0.224000,-0.927000,-56.244000,24.153000,-36.565000,29.80
7.286294,0.501000,-0.224000,-0.955000,-57.176000,10.275000,-32.840000,29.80
7.296351,0.381000,-0.193000,-0.908000,-35.664000,26.427000,-35.237000,29.85
7.306247,0.407000,-0.229000,-0.844000,-42.321000,36.107000,-34.473000,29.75
7.316435,0.474000,-0.205000,-0.991000,-34.015000,34.443000,-36.397000,29.75
7.326434,0.581000,-0.394000,-0.853000,-27.252000,19.420000,-34.290000,29.71
7.336425,0.438000,-0.181000,-0.921000,-27.115000,63.481000,-43.313000,29.75
7.346448,0.425000,-0.342000,-0.900000,-42.885000,79.649000,-38.794000,29.85
7.356334,0.444000,-0.203000,-0.954000,-44.702000,80.870000,-33.557000,29.75
7.366404,0.387000,-0.152000,-0.910000,-44.092000,119.038000,-32.473000,29.71
7.376383,0.387000,-0.154000,-0.896000,-51.344000,130.198000,-30.702000,29.80
7.386351,0.368000,-0.057000,-0.821000,-55.252000,162.870000,-35.481000,29.75
7.396593,0.366000,-0.039000,-0.808000,-53.969000,194.061000,-39.328000,29.75
7.406437,0.403000,-0.025000,-0.863000,-51.802000,215.206000,-40.244000,29.80
7.416364,0.482000,-0.039000,-0.850000,-36.565000,220.763000,-42.076000,29.80
7.426385,0.430000,-0.102000,-0.849000,-34.076000,236.336000,-49.664000,29.85
7.436480,0.500000,-0.189000,-0.823000,-47.695000,258.824000,-60.733000,29.85
7.446443,0.575000,-0.144000,-0.927000,-53.710000,268.626000,-75.878000,29.85
7.456447,0.779000,-0.749000,-0.660000,-50.351000,265.359000,-87.069000,29.80
7.466253,1.157000,-0.528000,-1.309000,15.664000,213.664000,-58.412000,29.80
7.476131,1.133000,-0.522000,-1.487000,32.595000,269.466000,-67.985000,29.85
7.486391,1.325000,-0.685000,-1.833000,49.221000,339.969000,-116.779000,29.75
7.496494,1.615000,-0.657000,-2.317000,-3.847000,391.969000,-165.359000,29.80
7.506414,1.501000,-0.419000,-2.032000,-68.733000,469.328000,-220.443000,29.71
7.516377,1.766000,-0.714000,-2.197000,-42.580000,406.076000,-243.725000,29.85
7.526391,1.433000,-0.783000,-2.911000,-11.756000,242.672000,-208.137000,29.85
7.536456,-0.234000,-1.937000,-2.384000,26.611000,159.038000,-151.481000,29.89
7.546797,0.768000,-4.000000,-3.250000,23.176000,20.824000,-27.237000,29.89
7.556607,-0.077000,-3.195000,-3.258000,-121.618000,-205.954000,45.969000,29.80
7.566470,-1.414000,-1.890000,-1.078000,-180.290000,-130.290000,50.321000,29.85
7.576630,-0.911000,-0.978000,-1.897000,-148.092000,-221.435000,36.641000,29.85
7.586586,-0.804000,-0.537000,-2.060000,-83.298000,-207.405000,17.618000,29.89
7.596657,-0.650000,-0.643000,-1.805000,-19.924000,-237.832000,-4.214000,29.75
7.606694,-0.413000,-0.898000,-1.356000,-2.565000,-236.626000,-24.672000,29.85
7.616751,-0.155000,-0.796000,-1.202000,19.847000,-298.092000,-37.847000,29.85
7.626676,0.042000,-0.576000,-1.090000,31.725000,-283.893000,-47.634000,29.89
7.636799,0.264000,-0.485000,-1.044000,66.443000,-267.252000,-45.893000,29.71
7.646720,0.491000,-0.541000,-1.013000,98.489000,-267.573000,-31.740000,29.85
7.656646,0.601000,-0.607000,-0.845000,117.679000,-264.901000,-9.710000,29.85
7.666676,0.680000,-0.663000,-0.799000,129.618000,-266.397000,15.893000,29.80
7.676673,0.732000,-0.612000,-0.839000,134.076000,-251.664000,41.252000,29.80
7.686784,0.761000,-0.583000,-1.003000,136.031000,-231.237000,64.046000,29.89
7.697170,0.831000,-0.445000,-1.163000,143.511000,-210.504000,86.168000,29.85
7.706813,0.915000,-0.296000,-1.298000,154.061000,-193.344000,105.740000,29.75
7.716747,0.969000,-0.195000,-1.402000,166.305000,-192.947000,124.504000,29.71
7.726945,0.957000,-0.085000,-1.441000,170.626000,-196.122000,138.733000,29.80
7.736855,0.990000,-0.060000,-1.521000,167.206000,-204.794000,149.344000,29.85
7.747053,1.015000,0.065000,-1.598000,160.947000,-208.122000,158.504000,29.85
7.756750,1.072000,0.210000,-1.659000,161.527000,-209.359000,161.573000,29.75
7.766927,1.162000,0.320000,-1.656000,163.924000,-205.863000,159.863000,29.80
7.777009,1.314000,0.351000,-1.628000,161.557000,-203.008000,154.046000,29.80
7.787057,1.521000,0.341000,-1.650000,153.847000,-200.870000,146.122000,29.94
7.796896,1.749000,0.389000,-1.649000,148.412000,-202.290000,139.802000,29.85
7.806921,1.986000,0.475000,-1.631000,152.046000,-202.183000,135.084000,29.80
7.816689,2.174000,0.575000,-1.476000,161.802000,-199.008000,134.565000,29.80
7.826436,2.335000,0.691000,-1.159000,170.366000,-184.382000,138.626000,29.85
7.836451,2.611000,0.808000,-0.831000,167.099000,-149.191000,143.160000,29.85
7.846315,2.595000,0.920000,-0.538000,155.542000,-131.221000,145.847000,29.80
7.856477,2.787000,1.148000,-0.402000,141.985000,-96.214000,140.855000,29.80
7.866330,2.754000,1.345000,0.004000,121.863000,-60.931000,129.908000,29.71
7.876501,2.781000,1.565000,0.142000,105.160000,-35.389000,111.252000,29.75
7.886387,2.910000,1.556000,0.125000,84.733000,-4.565000,90.061000,29.85
7.896798,2.808000,1.488000,0.075000,68.885000,-6.489000,74.656000,29.89
7.906358,3.121000,1.830000,0.398000,18.076000,51.053000,31.237000,29.85
7.916373,3.139000,2.167000,0.852000,-46.748000,135.206000,-37.786000,29.75
7.926409,0.215000,0.164000,-0.136000,-28.733000,98.351000,-48.260000,29.75
7.936513,1.259000,-1.001000,-2.999000,-46.992000,12.137000,-53.282000,29.80
7.946201,-0.926000,-1.356000,-1.555000,-45.160000,-15.099000,-38.275000,29.71
7.956264,-0.847000,-1.268000,0.667000,-58.977000,-9.756000,-63.466000,29.85
7.966214,0.273000,-1.004000,0.163000,-78.931000,132.534000,-71.802000,29.75
7.976276,0.765000,-0.027000,-0.903000,-39.603000,175.725000,-50.916000,29.75
7.986308,0.346000,0.604000,-1.889000,-34.489000,220.870000,-71.099000,29.71
7.996307,0.401000,0.896000,-2.493000,-7.771000,198.412000,-101.511000,29.71
8.006314,0.506000,0.495000,-1.985000,42.794000,114.595000,-103.588000,29.75
8.016497,0.684000,-0.370000,-1.434000,67.206000,88.595000,-95.893000,29.85
8.026400,0.800000,-0.863000,-1.120000,70.397000,80.504000,-74.015000,29.80
8.036426,1.012000,-0.936000,-1.272000,44.763000,65.710000,-55.160000,29.71
8.046500,0.809000,-0.768000,-0.947000,24.931000,75.924000,-41.496000,29.75
8.056479,0.777000,-0.934000,-0.863000,13.511000,51.802000,-33.069000,29.85
8.066475,0.805000,-1.028000,-0.682000,-3.527000,33.237000,-22.565000,29.80
8.076614,0.583000,-0.859000,-0.662000,-23.527000,19.221000,-17.557000,29.80
8.086566,0.398000,-0.611000,-0.720000,-39.878000,5.221000,-17.603000,29.85
8.096631,0.340000,-0.549000,-0.707000,-53.405000,2.992000,-21.115000,29.75
8.106539,0.255000,-0.479000,-0.680000,-63.573000,10.885000,-24.122000,29.75
8.116937,0.107000,-0.300000,-0.655000,-79.237000,12.626000,-28.122000,29.80
8.126758,0.094000,-0.309000,-0.616000,-101.496000,19.298000,-33.359000,29.71
8.136586,0.281000,-0.526000,-0.735000,-119.099000,30.901000,-36.489000,29.85
8.146524,0.517000,-0.544000,-0.944000,-112.183000,38.427000,-34.977000,29.75
8.156607,0.477000,-0.431000,-1.000000,-99.038000,40.366000,-35.084000,29.80
8.166537,0.478000,-0.487000,-0.977000,-91.145000,35.069000,-33.969000,29.75
8.176551,0.441000,-0.499000,-0.817000,-81.099000,18.672000,-32.977000,29.85
8.186563,0.418000,-0.520000,-0.866000,-82.305000,2.321000,-35.511000,29.75
8.196676,0.445000,-0.453000,-0.819000,-88.076000,-3.695000,-38.305000,29.80
8.206470,0.459000,-0.378000,-0.858000,-92.015000,-0.550000,-39.099000,29.80
8.216586,0.401000,-0.242000,-0.964000,-87.496000,-2.092000,-38.611000,29.75
8.226646,0.398000,-0.367000,-0.830000,-89.176000,-11.176000,-39.634000,29.75
8.236705,0.373000,-0.241000,-0.924000,-89.145000,-10.977000,-41.511000,29.75
8.246591,0.381000,-0.015000,-1.029000,-76.092000,-5.832000,-39.740000,29.80
8.256652,0.399000,-0.172000,-0.931000,-64.962000,5.176000,-36.092000,29.71
8.266767,0.374000,-0.118000,-0.949000,-54.092000,19.313000,-27.496000,29.75
8.276820,0.421000,-0.117000,-1.011000,-40.519000,21.985000,-25.496000,29.75
8.286723,0.390000,-0.163000,-0.947000,-30.198000,25.832000,-24.351000,29.80
8.296803,0.284000,-0.274000,-0.870000,-27.115000,37.344000,-23.725000,29.80
8.306765,0.435000,-0.226000,-0.948000,-25.191000,42.397000,-25.313000,29.75
8.316776,0.417000,-0.224000,-0.929000,-29.893000,45.344000,-26.275000,29.85
8.326722,0.343000,-0.166000,-0.992000,-15.573000,35.863000,-39.053000,29.75
8.336715,0.376000,-0.137000,-0.906000,-33.878000,50.198000,-37.847000,29.89
8.346788,0.436000,-0.400000,-0.838000,-40.061000,63.725000,-33.450000,29.80
8.356617,0.423000,-0.216000,-0.961000,-41.527000,69.603000,-34.947000,29.75
8.366725,0.387000,-0.211000,-0.918000,-50.397000,87.893000,-34.779000,29.75
8.376722,0.434000,-0.225000,-0.905000,-48.626000,101.084000,-37.985000,29.71
8.386760,0.472000,-0.174000,-0.860000,-56.519000,121.908000,-37.344000,29.71
8.396823,0.404000,-0.096000,-0.855000,-55.924000,145.053000,-43.618000,29.85
8.406537,0.366000,-0.015000,-0.898000,-54.885000,157.344000,-48.305000,29.75
8.416714,0.441000,0.010000,-0.851000,-47.771000,181.359000,-44.092000,29.66
8.426723,0.477000,-0.054000,-0.837000,-48.031000,196.305000,-40.962000,29.80
8.436703,0.401000,-0.111000,-0.904000,-45.099000,204.427000,-45.893000,29.71
8.446908,0.412000,-0.178000,-0.821000,-40.412000,211.802000,-53.878000,29.75
8.456684,0.593000,-0.165000,-0.909000,-54.076000,249.130000,-69.282000,29.85
8.466701,0.528000,-0.251000,-0.845000,-60.031000,247.893000,-89.832000,29.71
8.476321,0.787000,-0.278000,-1.111000,-40.565000,203.954000,-65.588000,29.75
8.486666,1.005000,-0.429000,-1.148000,-39.115000,231.389000,-52.916000,29.85
8.496765,0.956000,-0.553000,-1.146000,-87.435000,306.626000,-95.389000,29.75
8.506540,1.180000,-0.492000,-1.788000,-83.893000,335.756000,-144.931000,29.80
8.516816,1.453000,-0.596000,-2.123000,-85.802000,378.534000,-189.557000,29.80
8.526606,1.888000,-0.393000,-1.979000,-83.405000,425.359000,-224.260000,29.75
8.536598,1.862000,-0.375000,-1.996000,-55.954000,438.779000,-249.725000,29.85
8.546677,1.509000,-0.324000,-2.279000,-33.908000,299.191000,-235.817000,29.80
8.556549,-0.056000,-3.387000,-2.469000,31.740000,175.878000,-127.405000,29.80
8.566712,1.600000,-4.000000,-2.543000,15.221000,-42.840000,24.931000,29.80
8.576534,0.383000,-3.137000,-2.296000,-157.710000,-126.031000,144.122000,29.75
8.586779,-0.913000,-1.720000,-0.778000,-167.359000,-73.954000,175.908000,29.75
8.596775,-0.619000,-0.854000,-1.510000,-95.435000,-105.740000,186.412000,29.80
8.606649,-0.615000,-0.403000,-1.931000,-29.786000,-76.351000,157.053000,29.80
8.616492,-0.479000,-0.733000,-1.704000,-2.992000,-79.985000,124.198000,29.75
8.626674,-0.360000,-0.785000,-1.449000,-6.504000,-151.969000,98.305000,29.66
8.636793,-0.234000,-0.601000,-1.097000,-25.191000,-188.382000,65.069000,29.80
8.646751,-0.064000,-0.347000,-1.175000,-21.496000,-235.084000,32.412000,29.71
8.656522,0.143000,-0.254000,-1.187000,3.023000,-265.206000,9.908000,29.80
8.666723,0.375000,-0.317000,-1.203000,35.313000,-282.305000,-5.756000,29.75
8.677098,0.547000,-0.458000,-1.129000,59.481000,-285.389000,-13.695000,29.75
8.686430,0.682000,-0.592000,-0.947000,69.450000,-290.183000,-14.519000,29.71
8.699176,0.766000,-0.677000,-0.811000,71.603000,-291.802000,-6.595000,29.80
8.705992,0.861000,-0.657000,-0.787000,72.992000,-289.176000,7.115000,29.66
8.716681,0.887000,-0.669000,-0.822000,83.969000,-277.053000,24.198000,29.75
8.725949,0.937000,-0.601000,-0.927000,106.046000,-259.863000,42.840000,29.80
8.736049,0.972000,-0.547000,-0.998000,128.336000,-245.771000,61.221000,29.71
8.746058,0.988000,-0.497000,-1.000000,142.031000,-236.992000,75.252000,29.80
8.756071,0.986000,-0.408000,-0.955000,143.252000,-229.756000,84.305000,29.85
8.766049,0.969000,-0.312000,-0.971000,142.427000,-215.023000,91.924000,29.75
8.776089,0.930000,-0.223000,-1.028000,150.977000,-208.275000,99.053000,29.61
8.786091,0.944000,-0.237000,-1.204000,162.183000,-189.878000,103.985000,29.71
8.796119,1.080000,-0.181000,-1.400000,173.664000,-174.290000,112.504000,29.71
8.806195,1.222000,-0.101000,-1.511000,186.031000,-164.824000,118.580000,29.75
8.816176,1.399000,0.019000,-1.591000,195.649000,-155.847000,122.962000,29.85
8.826200,1.581000,0.153000,-1.601000,198.672000,-157.466000,127.756000,29.80
8.836172,1.720000,0.320000,-1.516000,198.901000,-158.672000,128.351000,29.85
8.846294,1.851000,0.587000,-1.483000,200.870000,-157.145000,125.557000,29.75
8.856324,1.968000,0.784000,-1.445000,195.435000,-143.237000,118.550000,29.85
8.866311,2.108000,0.951000,-1.413000,194.718000,-145.649000,111.206000,29.80
8.876292,2.236000,1.208000,-1.256000,191.053000,-139.511000,104.000000,29.71
8.886406,2.378000,1.387000,-0.953000,190.351000,-132.214000,95.588000,29.75
8.896786,2.550000,1.438000,-0.584000,176.641000,-106.290000,88.840000,29.85
8.906329,2.605000,1.469000,-0.229000,150.458000,-84.840000,83.725000,29.66
8.916197,2.601000,1.564000,0.018000,116.183000,-52.290000,77.573000,29.71
8.926180,2.556000,1.732000,0.100000,85.267000,-20.840000,69.130000,29.71
8.936183,2.657000,1.678000,-0.123000,44.214000,14.550000,64.107000,29.66
8.946180,2.587000,1.623000,-0.048000,-3.145000,45.252000,57.908000,29.75
8.956447,3.644000,2.137000,0.274000,-119.405000,143.939000,7.695000,29.80
8.966081,-0.428000,0.279000,-0.713000,-32.489000,-24.794000,0.489000,29.71
8.976374,1.090000,-0.898000,-3.069000,-68.107000,-22.275000,-13.954000,29.85
8.986193,-1.413000,-1.836000,-0.796000,-80.107000,-16.412000,1.603000,29.85
8.996209,-0.762000,-0.644000,0.168000,-75.740000,-14.641000,-29.527000,29.75
9.006222,0.442000,-0.101000,-0.470000,-67.557000,120.840000,-56.000000,29.80
9.015969,0.377000,0.575000,-1.369000,-47.145000,146.519000,-67.145000,29.80
9.025989,0.216000,0.528000,-1.943000,-41.740000,149.298000,-70.412000,29.75
9.035988,0.116000,0.263000,-1.999000,-31.145000,125.725000,-90.000000,29.75
9.046365,0.408000,-0.112000,-1.586000,2.687000,95.588000,-90.702000,29.71
9.057362,0.549000,-0.334000,-1.297000,30.198000,97.176000,-77.328000,29.80
9.069385,0.391000,-0.341000,-1.109000,39.374000,96.855000,-71.282000,29.75
9.076008,0.435000,-0.486000,-0.929000,37.740000,95.634000,-71.160000,29.75
9.085957,0.770000,-0.819000,-0.911000,27.176000,91.481000,-67.649000,29.75
9.099638,1.050000,-1.218000,-0.665000,11.145000,61.924000,-46.992000,29.71
9.105963,0.810000,-1.037000,-0.710000,-7.053000,44.794000,-32.855000,29.80
9.115966,0.581000,-0.722000,-0.881000,-22.565000,33.328000,-28.672000,29.75
9.137312,0.528000,-0.627000,-0.908000,-33.252000,16.595000,-27.771000,29.75
9.138655,0.487000,-0.690000,-0.782000,-43.099000,11.053000,-24.214000,29.80
9.146126,0.326000,-0.537000,-0.748000,-46.336000,13.359000,-23.664000,29.75
9.156321,0.186000,-0.339000,-0.792000,-43.099000,11.893000,-26.260000,29.75
9.166314,0.174000,-0.313000,-0.774000,-44.412000,15.435000,-30.092000,29.75
9.183629,0.166000,-0.307000,-0.684000,-51.298000,14.641000,-31.710000,29.75
9.186141,0.105000,-0.318000,-0.584000,-67.282000,19.160000,-34.641000,29.71
9.196096,0.158000,-0.421000,-0.528000,-89.786000,26.916000,-41.267000,29.75
9.206367,0.426000,-0.671000,-0.649000,-111.985000,47.145000,-47.527000,29.75
9.216626,0.675000,-0.736000,-0.847000,-126.427000,53.450000,-44.198000,29.66
9.226430,0.565000,-0.659000,-0.986000,-119.252000,41.725000,-40.672000,29.71
9.236456,0.451000,-0.544000,-0.810000,-121.420000,24.901000,-39.405000,29.71
9.246272,0.574000,-0.497000,-0.912000,-110.626000,7.511000,-37.420000,29.75
9.256472,0.459000,-0.312000,-0.954000,-102.504000,4.595000,-35.313000,29.75
9.266440,0.485000,-0.308000,-0.968000,-90.595000,7.740000,-34.321000,29.75
9.276501,0.416000,-0.234000,-0.943000,-82.229000,8.885000,-32.794000,29.71
9.286494,0.375000,-0.148000,-1.027000,-72.137000,5.435000,-32.046000,29.71
9.296476,0.407000,-0.317000,-0.909000,-67.573000,9.374000,-34.672000,29.85
9.306530,0.404000,-0.250000,-0.899000,-67.771000,7.954000,-34.244000,29.75
9.316496,0.475000,-0.223000,-1.018000,-65.847000,18.840000,-34.504000,29.80
9.326257,0.407000,-0.198000,-0.920000,-55.710000,27.710000,-37.099000,29.71
9.336373,0.437000,-0.225000,-0.887000,-52.779000,29.023000,-34.290000,29.75
9.346790,0.404000,-0.214000,-0.916000,-50.473000,22.779000,-35.313000,29.75
9.356498,0.445000,-0.263000,-0.900000,-49.374000,21.344000,-35.924000,29.75
9.366682,0.416000,-0.207000,-0.899000,-48.870000,30.809000,-32.687000,29.80
9.376659,0.442000,-0.241000,-0.877000,-45.328000,32.611000,-33.847000,29.80
9.386549,0.454000,-0.233000,-0.916000,-43.466000,36.672000,-36.061000,29.75
9.396159,0.625000,-0.533000,-0.628000,-40.916000,47.649000,-36.733000,29.85
9.406388,0.441000,-0.234000,-0.875000,-33.725000,56.489000,-51.282000,29.71
9.416727,0.441000,-0.333000,-0.864000,-52.977000,72.992000,-46.565000,29.71
9.426759,0.405000,-0.227000,-0.882000,-53.924000,85.053000,-46.870000,29.85
9.436765,0.466000,-0.075000,-0.925000,-53.206000,103.847000,-44.366000,29.75
9.446762,0.475000,-0.119000,-0.867000,-54.611000,119.069000,-39.908000,29.71
9.456585,0.405000,-0.017000,-0.847000,-56.382000,142.687000,-41.023000,29.85
9.466713,0.405000,-0.008000,-0.809000,-57.344000,164.153000,-42.153000,29.85
9.476692,0.394000,0.039000,-0.896000,-44.351000,186.641000,-38.687000,29.75
9.486762,0.408000,-0.073000,-0.934000,-30.046000,201.374000,-35.298000,29.80
9.496852,0.391000,-0.076000,-0.913000,-19.542000,218.290000,-40.641000,29.61
9.506568,0.451000,-0.222000,-0.809000,-19.374000,242.061000,-53.313000,29.75
9.516532,0.621000,-0.243000,-0.916000,-18.794000,267.084000,-79.695000,29.75
9.526683,0.505000,-0.230000,-1.220000,-12.336000,211.069000,-103.817000,29.80
9.536615,1.052000,-0.441000,-0.891000,-25.160000,245.237000,-65.389000,29.80
9.546443,0.977000,-0.494000,-1.111000,-27.603000,254.962000,-54.260000,29.66
9.556662,0.989000,-0.511000,-1.571000,-63.069000,342.779000,-102.107000,29.75
9.566541,1.285000,-0.369000,-1.937000,-62.122000,387.786000,-157.847000,29.80
9.576735,1.948000,-0.462000,-2.472000,-45.939000,423.145000,-207.267000,29.80
9.586789,1.552000,-0.353000,-2.335000,-39.725000,459.863000,-243.969000,29.75
9.596516,1.536000,-0.115000,-2.970000,24.305000,408.168000,-249.069000,29.75
9.606690,0.082000,-2.376000,-3.289000,129.099000,69.725000,-197.221000,29.75
9.616764,1.050000,-4.000000,-2.563000,49.435000,-14.153000,-57.176000,29.80
9.626726,-0.063000,-3.197000,-2.882000,-79.985000,-223.618000,8.519000,29.80
9.636713,-0.970000,-1.940000,-0.914000,-121.786000,-204.504000,43.099000,29.85
9.646692,-0.626000,-1.306000,-1.321000,-90.153000,-204.702000,65.160000,29.75
9.656640,-0.560000,-0.984000,-1.719000,-37.466000,-221.969000,62.214000,29.80
9.666732,-0.366000,-1.084000,-1.604000,-20.382000,-210.855000,51.405000,29.85
9.676721,-0.229000,-1.028000,-1.306000,-25.496000,-204.336000,37.191000,29.85
9.686336,-0.135000,-0.748000,-1.145000,-5.573000,-267.817000,20.397000,29.75
9.696489,0.037000,-0.440000,-1.057000,17.542000,-273.237000,-1.542000,29.61
9.706575,0.253000,-0.396000,-1.014000,56.489000,-267.008000,-14.550000,29.80
9.716723,0.475000,-0.502000,-1.002000,90.870000,-270.137000,-15.053000,29.75
9.726756,0.679000,-0.741000,-0.982000,109.863000,-267.710000,-5.130000,29.75
9.736731,0.832000,-0.830000,-0.993000,118.076000,-260.366000,13.023000,29.71
9.746788,0.852000,-0.764000,-0.918000,122.550000,-254.763000,31.740000,29.71
9.756652,0.886000,-0.678000,-0.944000,129.893000,-251.985000,49.053000,29.75
9.766767,0.921000,-0.580000,-1.005000,144.977000,-248.992000,64.458000,29.75
9.776764,1.552000,-2.943000,-0.118000,184.290000,-235.618000,126.183000,29.75
9.786751,-0.021000,1.137000,-0.361000,-253.099000,-417.695000,189.802000,29.80
9.796789,-0.513000,2.536000,-3.415000,107.115000,62.397000,108.107000,29.71
9.806576,1.378000,1.422000,-2.619000,450.550000,-243.176000,176.672000,29.66
9.816779,0.654000,-0.280000,0.837000,307.802000,-178.443000,95.939000,29.85
9.826346,1.413000,-1.861000,-1.007000,186.855000,-212.076000,113.267000,29.71
9.836287,1.794000,-0.534000,-1.341000,110.580000,-147.740000,156.855000,29.80
9.846287,1.287000,0.121000,-1.352000,119.924000,-117.038000,151.435000,29.75
9.856557,1.338000,0.708000,-1.605000,170.244000,-157.252000,171.649000,29.75
9.866741,1.558000,0.261000,-1.342000,211.252000,-123.435000,175.954000,29.80
9.876934,1.858000,-0.135000,-0.908000,184.672000,-89.634000,177.313000,29.66
9.886273,2.155000,-0.085000,-1.013000,173.008000,-127.115000,176.565000,29.75
9.896462,2.143000,0.306000,-0.925000,173.573000,-134.443000,171.221000,29.85
9.906766,2.167000,0.730000,-0.849000,204.198000,-97.863000,159.847000,29.89
9.916435,2.241000,0.984000,-0.835000,239.756000,-63.695000,155.298000,29.61
9.930526,2.275000,0.943000,-0.700000,248.733000,-34.473000,156.565000,29.75
9.936143,2.430000,1.041000,-0.606000,219.160000,-24.641000,151.878000,29.75
9.946110,2.436000,1.321000,-0.514000,162.275000,-29.237000,128.824000,29.71
9.956357,2.314000,1.716000,-0.458000,121.374000,-63.359000,85.008000,29.89
9.966113,2.131000,1.996000,0.307000,39.282000,-27.099000,36.092000,29.80
9.976306,2.233000,1.787000,-0.171000,37.359000,-23.511000,-15.573000,29.66
9.986261,2.397000,1.488000,-0.278000,14.061000,-8.229000,-42.718000,29.75
9.996263,2.218000,1.093000,-0.035000,-43.328000,-9.878000,-48.672000,29.80
10.006267,2.602000,0.617000,-0.330000,-86.061000,-16.137000,-22.687000,29.71
