# Gait Analysis Data - MPU6050 IMU
# Duration: 10 seconds
# Format: timestamp(s),ax(g),ay(g),az(g),gx(deg/s),gy(deg/s),gz(deg/s),temp(C)
# Note: Document sensor placement (ankle/wrist) separately
timestamp,ax,ay,az,gx,gy,gz,temp
0.001424,0.625000,-0.146000,-0.774000,-1.954000,2.824000,-1.160000,30.74
0.003206,0.630000,-0.147000,-0.774000,-1.695000,2.870000,-1.053000,30.84
0.003879,0.625000,-0.140000,-0.765000,-1.695000,2.794000,-1.237000,30.88
0.004492,0.625000,-0.140000,-0.766000,-1.710000,2.763000,-1.038000,30.69
0.005086,0.624000,-0.147000,-0.769000,-1.695000,2.779000,-0.962000,30.84
0.005668,0.627000,-0.146000,-0.764000,-1.679000,2.733000,-0.992000,30.74
0.006245,0.625000,-0.145000,-0.777000,-1.878000,2.214000,-0.977000,30.84
0.006818,0.630000,-0.145000,-0.770000,-1.649000,2.489000,-0.916000,30.69
0.007384,0.622000,-0.149000,-0.774000,-1.710000,2.397000,-0.824000,30.79
0.007943,0.624000,-0.149000,-0.776000,-1.557000,2.489000,-0.916000,30.84
0.008483,0.629000,-0.143000,-0.770000,-1.740000,2.489000,-0.916000,30.84
0.009104,0.621000,-0.153000,-0.763000,-1.802000,2.763000,-0.931000,30.74
0.009838,0.626000,-0.148000,-0.774000,-1.649000,2.748000,-0.885000,30.79
0.010764,0.619000,-0.151000,-0.775000,-1.634000,2.687000,-0.824000,30.88
0.011271,0.626000,-0.147000,-0.781000,-1.786000,2.702000,-1.023000,30.84
0.011780,0.625000,-0.153000,-0.775000,-1.557000,2.702000,-0.779000,30.84
0.012382,0.627000,-0.147000,-0.768000,-1.542000,2.748000,-0.794000,30.88
0.012994,0.625000,-0.146000,-0.779000,-1.542000,2.855000,-0.885000,30.69
0.013509,0.631000,-0.148000,-0.772000,-1.756000,2.840000,-1.145000,30.79
0.013982,0.624000,-0.152000,-0.772000,-1.618000,2.779000,-0.748000,30.84
0.014463,0.625000,-0.157000,-0.775000,-1.603000,2.901000,-0.885000,30.74
0.015036,0.629000,-0.153000,-0.775000,-1.649000,2.779000,-0.885000,30.79
0.015550,0.627000,-0.150000,-0.771000,-1.603000,2.565000,-0.794000,30.79
0.016038,0.629000,-0.155000,-0.769000,-1.649000,2.687000,-0.824000,30.79
0.016501,0.628000,-0.149000,-0.769000,-1.588000,2.580000,-0.748000,30.74
0.016979,0.625000,-0.150000,-0.775000,-1.664000,2.443000,-0.901000,30.74
0.017446,0.630000,-0.146000,-0.767000,-1.527000,2.702000,-1.008000,30.79
0.017901,0.621000,-0.151000,-0.766000,-1.618000,2.550000,-0.779000,30.88
0.018337,0.626000,-0.156000,-0.771000,-1.710000,2.550000,-0.840000,30.79
0.019007,0.620000,-0.149000,-0.769000,-1.695000,2.565000,-0.824000,30.84
0.019483,0.624000,-0.146000,-0.780000,-1.649000,2.641000,-0.992000,30.84
0.019941,0.626000,-0.151000,-0.777000,-1.679000,2.305000,-0.855000,30.69
0.020561,0.626000,-0.151000,-0.768000,-1.618000,2.702000,-0.855000,30.88
0.021540,0.626000,-0.150000,-0.777000,-1.802000,2.565000,-0.809000,30.79
0.022035,0.624000,-0.147000,-0.769000,-1.817000,2.504000,-0.687000,30.74
0.022464,0.624000,-0.145000,-0.768000,-1.878000,2.427000,-0.992000,30.84
0.023006,0.625000,-0.152000,-0.773000,-1.679000,2.519000,-0.794000,30.74
0.023607,0.623000,-0.150000,-0.773000,-1.695000,2.565000,-1.023000,30.79
0.024087,0.618000,-0.151000,-0.769000,-2.000000,2.626000,-0.931000,30.79
0.024532,0.620000,-0.147000,-0.766000,-1.802000,2.702000,-0.870000,30.74
0.024981,0.627000,-0.153000,-0.777000,-2.061000,2.779000,-1.099000,30.74
0.025407,0.628000,-0.148000,-0.771000,-1.908000,2.611000,-0.870000,30.74
0.025847,0.629000,-0.152000,-0.774000,-2.000000,2.763000,-0.977000,30.69
0.026281,0.623000,-0.150000,-0.774000,-1.985000,2.809000,-0.962000,30.88
0.026721,0.616000,-0.149000,-0.762000,-2.122000,2.885000,-1.023000,30.84
0.027258,0.623000,-0.153000,-0.773000,-2.305000,2.702000,-1.069000,30.84
0.027720,0.627000,-0.156000,-0.767000,-2.183000,2.840000,-0.962000,30.84
0.028163,0.622000,-0.150000,-0.774000,-2.229000,2.809000,-1.115000,30.79
0.028608,0.623000,-0.152000,-0.773000,-2.382000,2.840000,-1.420000,30.69
0.029053,0.622000,-0.148000,-0.781000,-2.198000,2.962000,-1.160000,30.84
0.029506,0.618000,-0.144000,-0.771000,-2.229000,2.687000,-1.282000,30.84
0.029958,0.626000,-0.152000,-0.772000,-1.954000,2.885000,-1.328000,30.84
0.030418,0.624000,-0.149000,-0.772000,-2.092000,2.611000,-1.176000,30.69
0.030943,0.621000,-0.152000,-0.769000,-1.969000,2.580000,-1.115000,30.88
0.031441,0.623000,-0.150000,-0.766000,-2.000000,2.397000,-0.947000,30.74
0.032010,0.621000,-0.153000,-0.769000,-1.786000,2.550000,-0.885000,30.84
0.032484,0.623000,-0.149000,-0.779000,-1.771000,2.504000,-0.840000,30.74
0.032936,0.623000,-0.150000,-0.780000,-1.878000,2.305000,-0.962000,30.88
0.033392,0.623000,-0.148000,-0.774000,-2.000000,2.290000,-0.916000,30.79
0.033862,0.627000,-0.146000,-0.776000,-1.908000,2.534000,-0.794000,30.74
0.034336,0.625000,-0.147000,-0.775000,-1.924000,2.427000,-0.916000,30.84
0.034790,0.617000,-0.142000,-0.775000,-1.893000,2.565000,-1.099000,30.74
0.035254,0.619000,-0.148000,-0.769000,-1.878000,2.656000,-0.962000,30.69
0.035713,0.628000,-0.150000,-0.771000,-2.168000,2.763000,-1.252000,30.79
0.036161,0.618000,-0.142000,-0.769000,-2.275000,2.824000,-1.313000,30.84
0.036696,0.622000,-0.149000,-0.770000,-2.397000,2.870000,-1.481000,30.84
0.037196,0.621000,-0.146000,-0.770000,-2.458000,3.008000,-1.481000,30.74
0.037663,0.617000,-0.152000,-0.779000,-2.473000,3.359000,-1.618000,30.79
0.038122,0.625000,-0.150000,-0.774000,-2.489000,3.420000,-1.573000,30.79
0.038578,0.623000,-0.148000,-0.776000,-2.427000,3.863000,-1.557000,30.84
0.039042,0.622000,-0.151000,-0.774000,-2.366000,3.557000,-1.878000,30.84
0.039490,0.630000,-0.145000,-0.771000,-2.412000,3.420000,-2.168000,30.74
0.039924,0.628000,-0.153000,-0.773000,-2.458000,3.374000,-1.985000,30.79
0.040341,0.629000,-0.141000,-0.765000,-2.321000,2.824000,-1.664000,30.79
0.040757,0.627000,-0.148000,-0.770000,-2.489000,2.565000,-1.679000,30.74
0.041181,0.624000,-0.142000,-0.775000,-2.137000,2.122000,-1.527000,30.84
0.041735,0.621000,-0.143000,-0.776000,-2.244000,2.122000,-1.176000,30.74
0.043467,0.623000,-0.146000,-0.770000,-2.305000,2.229000,-1.282000,30.79
0.044030,0.617000,-0.151000,-0.774000,-2.229000,2.107000,-1.298000,30.79
0.044580,0.627000,-0.151000,-0.763000,-2.366000,2.366000,-1.542000,30.74
0.045124,0.622000,-0.146000,-0.773000,-2.443000,2.305000,-1.389000,30.93
0.045667,0.619000,-0.146000,-0.783000,-2.534000,2.550000,-1.542000,30.74
0.046210,0.620000,-0.137000,-0.771000,-2.336000,2.794000,-1.542000,30.79
0.046886,0.615000,-0.148000,-0.763000,-2.397000,2.916000,-1.664000,30.79
0.047673,0.622000,-0.143000,-0.774000,-2.351000,2.748000,-1.374000,30.74
0.048282,0.623000,-0.147000,-0.775000,-2.137000,2.885000,-1.176000,30.74
0.048853,0.627000,-0.144000,-0.772000,-1.511000,2.779000,-1.221000,30.84
0.049371,0.625000,-0.144000,-0.767000,-1.817000,2.748000,-1.038000,30.79
0.049867,0.625000,-0.133000,-0.773000,-1.511000,2.550000,-0.870000,30.79
0.050370,0.626000,-0.142000,-0.769000,-1.389000,2.565000,-0.672000,30.84
0.050867,0.621000,-0.141000,-0.772000,-1.344000,2.626000,-0.763000,30.74
0.051372,0.619000,-0.144000,-0.776000,-1.328000,2.198000,-0.595000,30.74
0.051868,0.621000,-0.145000,-0.773000,-1.466000,2.321000,-0.687000,30.79
0.052369,0.623000,-0.142000,-0.770000,-1.588000,2.519000,-0.763000,30.79
0.052858,0.620000,-0.150000,-0.780000,-1.573000,2.427000,-0.733000,30.74
0.053353,0.618000,-0.148000,-0.768000,-1.771000,2.565000,-0.916000,30.74
0.053845,0.622000,-0.148000,-0.772000,-1.802000,2.626000,-1.053000,30.84
0.054337,0.621000,-0.149000,-0.769000,-1.954000,2.733000,-1.282000,30.79
0.054839,0.620000,-0.139000,-0.777000,-2.000000,2.672000,-1.084000,30.79
0.055334,0.626000,-0.150000,-0.773000,-2.122000,2.687000,-1.282000,30.79
0.055830,0.624000,-0.145000,-0.770000,-2.244000,2.687000,-1.344000,30.84
0.056345,0.624000,-0.145000,-0.776000,-2.214000,2.718000,-1.176000,30.65
0.056902,0.618000,-0.147000,-0.772000,-2.046000,2.412000,-1.053000,30.79
0.057422,0.623000,-0.147000,-0.770000,-2.260000,2.412000,-1.115000,30.69
0.057939,0.616000,-0.141000,-0.770000,-2.244000,2.443000,-1.099000,30.79
0.058480,0.628000,-0.147000,-0.779000,-2.244000,2.321000,-1.252000,30.74
0.058997,0.617000,-0.149000,-0.773000,-2.183000,2.260000,-1.176000,30.74
0.059568,0.620000,-0.148000,-0.775000,-2.183000,2.366000,-1.008000,30.79
0.060096,0.623000,-0.141000,-0.775000,-2.107000,2.351000,-0.870000,30.79
0.060607,0.622000,-0.146000,-0.770000,-2.092000,2.000000,-0.947000,30.79
0.061111,0.624000,-0.144000,-0.770000,-2.519000,2.061000,-0.901000,30.74
0.061578,0.617000,-0.142000,-0.776000,-2.260000,2.260000,-0.916000,30.74
0.062045,0.620000,-0.142000,-0.778000,-2.229000,2.366000,-1.008000,30.69
0.062509,0.621000,-0.138000,-0.772000,-2.321000,2.458000,-1.053000,30.79
0.062967,0.624000,-0.152000,-0.771000,-2.519000,2.519000,-1.160000,30.88
0.063432,0.620000,-0.141000,-0.769000,-2.458000,2.885000,-1.282000,30.84
0.063903,0.615000,-0.146000,-0.775000,-2.489000,2.443000,-1.221000,30.74
0.064365,0.621000,-0.147000,-0.768000,-2.550000,2.702000,-1.374000,30.69
0.064830,0.617000,-0.147000,-0.777000,-2.473000,2.733000,-1.282000,30.79
0.065290,0.625000,-0.153000,-0.772000,-2.397000,2.519000,-1.267000,30.79
0.065754,0.623000,-0.143000,-0.776000,-2.534000,2.672000,-1.313000,30.74
0.066217,0.620000,-0.146000,-0.774000,-2.504000,2.519000,-1.328000,30.84
0.066806,0.619000,-0.147000,-0.779000,-2.290000,2.611000,-1.206000,30.79
0.067519,0.617000,-0.151000,-0.776000,-2.351000,2.656000,-1.374000,30.79
0.067999,0.623000,-0.142000,-0.783000,-2.137000,2.489000,-1.282000,30.69
0.068463,0.622000,-0.142000,-0.771000,-2.046000,2.519000,-1.069000,30.74
0.068920,0.625000,-0.152000,-0.770000,-2.214000,2.412000,-1.221000,30.84
0.069396,0.620000,-0.137000,-0.767000,-2.031000,2.366000,-0.947000,30.79
0.069857,0.617000,-0.140000,-0.776000,-1.878000,2.580000,-0.885000,30.88
0.070321,0.624000,-0.140000,-0.773000,-1.664000,2.611000,-0.855000,30.79
0.070763,0.625000,-0.148000,-0.783000,-2.076000,2.595000,-0.992000,30.74
0.071209,0.619000,-0.140000,-0.776000,-2.153000,2.641000,-0.885000,30.74
0.071657,0.619000,-0.140000,-0.777000,-1.832000,2.595000,-0.901000,30.79
0.072103,0.622000,-0.142000,-0.767000,-1.969000,2.504000,-0.733000,30.79
0.072545,0.626000,-0.140000,-0.775000,-1.893000,2.443000,-0.763000,30.79
0.072984,0.619000,-0.142000,-0.778000,-1.939000,2.565000,-0.992000,30.84
0.073420,0.627000,-0.147000,-0.771000,-1.878000,2.595000,-0.962000,30.84
0.073865,0.616000,-0.147000,-0.785000,-1.924000,2.824000,-0.962000,30.79
0.074307,0.619000,-0.140000,-0.783000,-1.969000,2.672000,-0.840000,30.79
0.074748,0.620000,-0.147000,-0.780000,-2.092000,2.748000,-1.023000,30.69
0.075191,0.616000,-0.152000,-0.773000,-2.366000,2.809000,-1.176000,30.93
0.075633,0.618000,-0.137000,-0.776000,-2.275000,2.763000,-1.252000,30.84
0.076079,0.620000,-0.145000,-0.783000,-2.229000,2.977000,-1.344000,30.79
0.076605,0.622000,-0.141000,-0.773000,-2.260000,2.779000,-1.237000,30.79
0.077221,0.621000,-0.141000,-0.781000,-2.229000,2.962000,-1.420000,30.79
0.077681,0.621000,-0.144000,-0.775000,-2.046000,2.870000,-1.527000,30.74
0.078127,0.622000,-0.134000,-0.774000,-2.031000,2.824000,-1.344000,30.74
0.078563,0.613000,-0.142000,-0.777000,-2.137000,2.840000,-1.298000,30.79
0.079102,0.620000,-0.152000,-0.776000,-2.214000,2.977000,-1.374000,30.79
0.079604,0.615000,-0.147000,-0.781000,-2.275000,2.840000,-1.450000,30.69
0.080054,0.625000,-0.147000,-0.787000,-2.000000,2.840000,-1.511000,30.74
0.080493,0.618000,-0.143000,-0.778000,-2.412000,2.992000,-1.389000,30.74
0.080936,0.621000,-0.139000,-0.781000,-2.290000,2.763000,-1.557000,30.79
0.081393,0.619000,-0.141000,-0.771000,-2.183000,2.748000,-1.435000,30.79
0.081839,0.627000,-0.140000,-0.775000,-2.260000,2.550000,-1.466000,30.79
0.082273,0.625000,-0.141000,-0.779000,-2.183000,2.672000,-1.557000,30.84
0.082711,0.618000,-0.137000,-0.782000,-2.366000,2.763000,-1.389000,30.84
0.083146,0.619000,-0.142000,-0.784000,-2.229000,2.779000,-1.450000,30.79
0.083628,0.620000,-0.143000,-0.771000,-2.183000,2.916000,-1.328000,30.69
0.084144,0.621000,-0.144000,-0.778000,-2.183000,2.885000,-1.328000,30.79
0.084607,0.617000,-0.144000,-0.777000,-2.183000,2.916000,-1.450000,30.84
0.085041,0.623000,-0.141000,-0.776000,-2.015000,2.916000,-1.435000,30.84
0.085478,0.625000,-0.144000,-0.766000,-2.168000,3.191000,-1.527000,30.79
0.085908,0.617000,-0.144000,-0.771000,-2.305000,3.237000,-1.679000,30.79
0.086340,0.620000,-0.143000,-0.781000,-2.153000,3.160000,-1.664000,30.79
0.086815,0.615000,-0.142000,-0.773000,-2.305000,3.008000,-1.588000,30.84
0.087373,0.619000,-0.138000,-0.778000,-2.412000,3.023000,-1.588000,30.84
0.087807,0.626000,-0.138000,-0.772000,-2.275000,3.053000,-1.542000,30.79
0.088251,0.622000,-0.135000,-0.772000,-2.427000,3.206000,-1.435000,30.79
0.088770,0.617000,-0.137000,-0.782000,-2.244000,3.084000,-1.374000,30.79
0.089267,0.626000,-0.142000,-0.761000,-2.076000,2.809000,-1.664000,30.84
0.089719,0.620000,-0.133000,-0.777000,-2.137000,3.191000,-1.603000,30.84
0.090166,0.622000,-0.139000,-0.778000,-2.168000,3.084000,-1.481000,30.69
0.090614,0.622000,-0.133000,-0.779000,-1.985000,3.038000,-1.527000,30.79
0.091049,0.621000,-0.137000,-0.769000,-2.061000,3.008000,-1.435000,30.88
0.091483,0.618000,-0.141000,-0.777000,-1.863000,3.038000,-1.588000,30.84
0.091921,0.624000,-0.142000,-0.786000,-2.000000,3.206000,-1.405000,30.84
0.092390,0.623000,-0.137000,-0.776000,-1.969000,3.176000,-1.389000,30.79
0.092884,0.619000,-0.137000,-0.775000,-1.985000,3.206000,-1.206000,30.79
0.093338,0.625000,-0.143000,-0.777000,-1.924000,3.130000,-1.282000,30.88
0.093775,0.623000,-0.136000,-0.774000,-1.893000,3.115000,-1.511000,30.74
0.094199,0.615000,-0.140000,-0.777000,-1.786000,3.145000,-1.344000,30.93
0.094614,0.621000,-0.136000,-0.770000,-1.878000,3.099000,-1.420000,30.79
0.095031,0.620000,-0.138000,-0.772000,-1.710000,2.901000,-1.130000,30.79
0.095459,0.618000,-0.137000,-0.780000,-1.832000,3.130000,-1.252000,30.79
0.095876,0.618000,-0.143000,-0.770000,-1.786000,3.130000,-1.160000,30.79
0.096294,0.626000,-0.140000,-0.778000,-1.756000,2.931000,-1.084000,30.84
0.096771,0.625000,-0.134000,-0.777000,-1.786000,3.023000,-1.084000,30.79
0.097329,0.622000,-0.141000,-0.775000,-1.893000,2.931000,-1.206000,30.79
0.097774,0.619000,-0.136000,-0.774000,-1.847000,3.099000,-1.298000,30.79
0.098219,0.627000,-0.141000,-0.771000,-1.878000,3.191000,-1.191000,30.79
0.098713,0.624000,-0.133000,-0.773000,-1.863000,2.947000,-0.931000,30.74
0.099199,0.625000,-0.135000,-0.778000,-1.573000,2.870000,-1.084000,30.69
0.099652,0.626000,-0.135000,-0.781000,-1.618000,2.885000,-1.008000,30.79
0.100100,0.619000,-0.134000,-0.770000,-1.405000,3.069000,-0.901000,30.79
0.100546,0.619000,-0.140000,-0.776000,-1.298000,3.099000,-0.824000,30.79
0.101028,0.619000,-0.142000,-0.782000,-1.618000,3.008000,-0.702000,30.74
0.101470,0.616000,-0.139000,-0.775000,-1.588000,3.252000,-0.962000,30.69
0.101924,0.623000,-0.134000,-0.771000,-1.573000,3.237000,-0.641000,30.79
0.102371,0.623000,-0.140000,-0.770000,-1.557000,3.206000,-0.733000,30.69
0.102830,0.623000,-0.138000,-0.781000,-1.328000,3.023000,-0.641000,30.79
0.103292,0.616000,-0.136000,-0.769000,-1.389000,3.145000,-0.794000,30.84
0.103778,0.620000,-0.139000,-0.784000,-1.252000,3.298000,-0.794000,30.79
0.104240,0.620000,-0.141000,-0.774000,-1.191000,3.115000,-0.702000,30.88
0.104751,0.618000,-0.139000,-0.779000,-1.145000,3.084000,-0.595000,30.79
0.105237,0.623000,-0.140000,-0.783000,-1.191000,3.084000,-0.748000,30.79
0.105705,0.618000,-0.138000,-0.774000,-1.282000,3.084000,-0.748000,30.84
0.106243,0.620000,-0.139000,-0.776000,-1.221000,3.069000,-0.702000,30.79
0.106707,0.627000,-0.140000,-0.781000,-1.237000,2.931000,-0.534000,30.79
0.107166,0.619000,-0.140000,-0.783000,-0.992000,2.595000,-0.641000,30.79
0.107704,0.619000,-0.139000,-0.775000,-1.008000,3.069000,-0.458000,30.69
0.108331,0.621000,-0.139000,-0.775000,-1.038000,2.916000,-0.534000,30.84
0.108909,0.628000,-0.140000,-0.776000,-0.977000,2.977000,-0.718000,30.74
0.109404,0.626000,-0.140000,-0.774000,-1.023000,3.099000,-0.565000,30.88
0.109988,0.623000,-0.138000,-0.767000,-1.282000,2.901000,-0.611000,30.69
0.110573,0.624000,-0.144000,-0.772000,-1.176000,2.733000,-0.672000,30.79
0.111077,0.624000,-0.139000,-0.778000,-1.053000,2.809000,-0.687000,30.74
0.111544,0.630000,-0.132000,-0.779000,-0.718000,2.046000,-0.427000,30.74
0.112005,0.622000,-0.138000,-0.780000,-0.595000,2.916000,-0.336000,30.79
0.112461,0.618000,-0.133000,-0.769000,-0.992000,3.389000,-0.427000,30.69
0.112921,0.616000,-0.141000,-0.767000,-0.977000,2.916000,-0.351000,30.79
0.113374,0.628000,-0.140000,-0.775000,-0.992000,2.382000,-0.382000,30.74
0.113968,0.623000,-0.144000,-0.780000,-0.427000,2.046000,-0.244000,30.79
0.114551,0.622000,-0.138000,-0.776000,-0.870000,2.275000,-0.260000,30.79
0.115064,0.620000,-0.145000,-0.771000,-0.718000,2.229000,-0.229000,30.88
0.115519,0.617000,-0.138000,-0.776000,-0.534000,2.260000,0.122000,30.88
0.115958,0.618000,-0.141000,-0.772000,-0.580000,2.137000,0.244000,30.84
0.116419,0.614000,-0.145000,-0.783000,-0.305000,2.229000,0.061000,30.88
0.116864,0.620000,-0.149000,-0.771000,-0.580000,2.427000,0.397000,30.79
0.117305,0.627000,-0.146000,-0.773000,-0.580000,2.107000,0.351000,30.69
0.117732,0.621000,-0.144000,-0.777000,-0.214000,1.863000,0.260000,30.79
0.118172,0.620000,-0.143000,-0.774000,-0.092000,2.290000,0.305000,30.74
0.118650,0.619000,-0.141000,-0.776000,-0.290000,2.260000,0.565000,30.88
0.119127,0.621000,-0.140000,-0.777000,-0.153000,2.046000,0.321000,30.79
0.119582,0.616000,-0.138000,-0.779000,-0.229000,2.000000,0.412000,30.79
0.120019,0.618000,-0.144000,-0.776000,-0.183000,2.229000,0.489000,30.79
0.120535,0.621000,-0.148000,-0.778000,-0.214000,2.000000,0.611000,30.84
0.121107,0.619000,-0.142000,-0.778000,-0.107000,1.924000,0.550000,30.79
0.121559,0.621000,-0.138000,-0.781000,-0.046000,2.244000,0.550000,30.79
0.122087,0.614000,-0.151000,-0.777000,-0.076000,2.244000,0.687000,30.79
0.122565,0.620000,-0.147000,-0.775000,-0.046000,2.382000,0.443000,30.84
0.123013,0.615000,-0.153000,-0.769000,-0.168000,2.412000,0.443000,30.74
0.123461,0.617000,-0.148000,-0.773000,-0.229000,2.504000,0.229000,30.69
0.123989,0.618000,-0.150000,-0.771000,-0.595000,2.641000,0.153000,30.88
0.124450,0.618000,-0.153000,-0.780000,-0.443000,2.580000,0.244000,30.79
0.124886,0.622000,-0.156000,-0.778000,-0.595000,2.718000,-0.046000,30.84
0.125315,0.612000,-0.149000,-0.773000,-0.672000,2.473000,-0.122000,30.74
0.125747,0.624000,-0.146000,-0.773000,-0.901000,2.733000,-0.168000,30.88
0.126181,0.619000,-0.149000,-0.775000,-0.840000,2.748000,-0.076000,30.79
0.126628,0.617000,-0.150000,-0.782000,-1.191000,2.626000,-0.458000,30.88
0.127091,0.616000,-0.156000,-0.776000,-0.947000,2.733000,-0.412000,30.84
0.127566,0.614000,-0.147000,-0.773000,-0.992000,2.733000,-0.321000,30.84
0.127993,0.624000,-0.150000,-0.780000,-1.023000,2.748000,-0.336000,30.79
0.128421,0.622000,-0.146000,-0.778000,-1.038000,2.809000,-0.260000,30.69
0.128866,0.622000,-0.151000,-0.776000,-0.870000,2.458000,-0.244000,30.79
0.129304,0.624000,-0.153000,-0.781000,-1.008000,2.031000,-0.321000,30.88
0.129724,0.615000,-0.148000,-0.772000,-0.794000,2.122000,-0.107000,30.74
0.130175,0.622000,-0.156000,-0.779000,-0.931000,2.305000,0.015000,30.88
0.130719,0.624000,-0.148000,-0.780000,-0.885000,2.214000,0.107000,30.88
0.131310,0.620000,-0.145000,-0.776000,-0.763000,2.076000,0.031000,30.79
0.131780,0.620000,-0.162000,-0.780000,-0.916000,2.260000,-0.168000,30.79
0.132253,0.613000,-0.150000,-0.776000,-0.931000,2.229000,-0.366000,30.84
0.132716,0.614000,-0.157000,-0.781000,-1.176000,2.076000,-0.122000,30.88
0.133156,0.619000,-0.150000,-0.772000,-1.069000,2.107000,-0.183000,30.79
0.133591,0.613000,-0.152000,-0.766000,-0.870000,1.969000,-0.198000,30.88
0.134036,0.625000,-0.153000,-0.789000,-0.962000,1.649000,-0.198000,30.88
0.134465,0.618000,-0.152000,-0.783000,-1.038000,2.092000,-0.031000,30.84
0.134907,0.616000,-0.154000,-0.774000,-0.947000,2.107000,-0.107000,30.79
0.135341,0.616000,-0.153000,-0.781000,-0.977000,1.939000,0.122000,30.79
0.135783,0.612000,-0.156000,-0.786000,-0.947000,1.985000,0.061000,30.88
0.136221,0.612000,-0.154000,-0.772000,-0.382000,1.847000,0.275000,30.79
0.136645,0.620000,-0.147000,-0.783000,-0.397000,1.695000,0.412000,30.84
0.137077,0.622000,-0.151000,-0.778000,-0.244000,1.542000,0.489000,30.79
0.137514,0.616000,-0.160000,-0.772000,-0.137000,1.740000,0.595000,30.88
0.137940,0.615000,-0.148000,-0.787000,-0.092000,1.435000,0.794000,30.88
0.138381,0.616000,-0.157000,-0.787000,-0.092000,1.511000,0.672000,30.88
0.138796,0.617000,-0.154000,-0.778000,-0.107000,1.405000,0.733000,30.84
0.139229,0.616000,-0.155000,-0.770000,-0.107000,1.420000,0.840000,30.88
0.139683,0.612000,-0.157000,-0.780000,-0.061000,1.405000,0.748000,30.79
0.140094,0.613000,-0.160000,-0.775000,-0.321000,1.985000,0.580000,30.79
0.140609,0.615000,-0.163000,-0.776000,-0.565000,1.710000,0.427000,30.79
0.141180,0.616000,-0.158000,-0.777000,-0.534000,1.664000,0.366000,30.74
0.141626,0.612000,-0.163000,-0.786000,-0.718000,1.786000,0.305000,30.74
0.142118,0.614000,-0.159000,-0.779000,-1.008000,1.802000,0.031000,30.79
0.142586,0.607000,-0.165000,-0.781000,-1.282000,1.725000,-0.351000,30.88
0.143041,0.614000,-0.163000,-0.779000,-1.481000,1.924000,-0.183000,30.79
0.143489,0.604000,-0.168000,-0.781000,-1.649000,1.954000,-0.519000,30.84
0.143925,0.609000,-0.168000,-0.779000,-1.908000,2.076000,-0.504000,30.84
0.144373,0.616000,-0.165000,-0.780000,-2.061000,1.939000,-0.595000,30.84
0.144803,0.617000,-0.159000,-0.781000,-2.183000,2.214000,-1.053000,30.79
0.145221,0.604000,-0.163000,-0.777000,-2.473000,1.924000,-1.069000,30.69
0.145640,0.604000,-0.168000,-0.781000,-3.435000,1.496000,-1.969000,30.84
0.146066,0.616000,-0.176000,-0.768000,-2.672000,2.092000,-1.603000,30.74
0.146484,0.622000,-0.150000,-0.783000,-3.084000,1.649000,-1.710000,30.84
0.146906,0.606000,-0.150000,-0.779000,-2.687000,1.878000,-1.298000,30.79
0.147318,0.614000,-0.153000,-0.788000,-2.824000,1.924000,-1.252000,30.88
0.147731,0.615000,-0.152000,-0.782000,-2.076000,2.153000,-1.053000,30.84
0.148145,0.611000,-0.158000,-0.781000,-2.107000,2.107000,-1.084000,30.84
0.148556,0.610000,-0.153000,-0.778000,-1.847000,1.649000,-0.718000,30.84
0.148982,0.608000,-0.148000,-0.780000,-1.466000,1.740000,-0.305000,30.88
0.149406,0.613000,-0.151000,-0.782000,-1.344000,1.664000,0.076000,30.79
0.149823,0.610000,-0.155000,-0.778000,-0.931000,1.756000,0.336000,30.79
0.150247,0.613000,-0.151000,-0.778000,-0.718000,1.573000,0.718000,30.84
0.150781,0.614000,-0.158000,-0.789000,-0.305000,1.435000,0.733000,30.84
0.151390,0.602000,-0.153000,-0.789000,-0.046000,1.603000,1.130000,30.79
0.151830,0.610000,-0.155000,-0.791000,0.168000,1.511000,1.252000,30.79
0.152272,0.615000,-0.158000,-0.778000,0.183000,1.511000,1.328000,30.79
0.152694,0.609000,-0.157000,-0.791000,0.321000,1.618000,1.298000,30.74
0.153106,0.607000,-0.160000,-0.781000,0.443000,1.435000,1.344000,30.84
0.153516,0.605000,-0.149000,-0.784000,0.504000,1.588000,1.542000,30.79
0.153953,0.610000,-0.157000,-0.783000,0.290000,1.847000,1.267000,30.79
0.154380,0.603000,-0.162000,-0.776000,0.595000,1.786000,1.282000,30.88
0.154807,0.609000,-0.162000,-0.779000,0.275000,2.015000,1.176000,30.84
0.155236,0.607000,-0.156000,-0.769000,-0.046000,1.893000,1.252000,30.74
0.155644,0.614000,-0.166000,-0.797000,0.519000,1.817000,1.374000,30.79
0.156056,0.610000,-0.166000,-0.789000,0.275000,1.832000,0.947000,30.79
0.156470,0.608000,-0.168000,-0.783000,0.397000,2.244000,1.023000,30.79
0.156886,0.601000,-0.169000,-0.781000,0.550000,2.260000,1.130000,30.74
0.157297,0.609000,-0.169000,-0.787000,0.763000,2.412000,1.145000,30.84
0.157714,0.607000,-0.166000,-0.783000,0.641000,2.351000,1.130000,30.79
0.158131,0.606000,-0.161000,-0.784000,0.763000,2.397000,1.405000,30.79
0.158542,0.607000,-0.162000,-0.779000,0.794000,2.260000,1.359000,30.88
0.158963,0.606000,-0.174000,-0.803000,1.298000,2.183000,1.740000,30.84
0.159404,0.606000,-0.169000,-0.781000,1.389000,2.382000,1.878000,30.84
0.159836,0.610000,-0.168000,-0.770000,1.359000,2.183000,1.878000,30.84
0.160268,0.610000,-0.163000,-0.791000,1.939000,2.015000,2.290000,30.79
0.160794,0.604000,-0.177000,-0.781000,1.832000,1.634000,2.244000,30.79
0.161372,0.611000,-0.173000,-0.782000,2.336000,1.847000,2.458000,30.84
0.161823,0.607000,-0.171000,-0.787000,2.351000,1.786000,2.458000,30.84
0.162275,0.601000,-0.177000,-0.783000,2.565000,1.710000,2.748000,30.84
0.162705,0.608000,-0.180000,-0.779000,2.351000,1.908000,2.672000,30.79
0.163145,0.602000,-0.177000,-0.778000,2.565000,1.695000,2.748000,30.88
0.163646,0.606000,-0.181000,-0.778000,2.473000,1.756000,2.580000,30.88
0.164100,0.603000,-0.179000,-0.781000,2.504000,1.634000,2.718000,30.74
0.164533,0.607000,-0.181000,-0.779000,2.519000,1.710000,2.794000,30.84
0.165029,0.603000,-0.185000,-0.784000,2.595000,1.679000,2.794000,30.79
0.165500,0.607000,-0.187000,-0.783000,2.412000,1.832000,2.550000,30.79
0.165939,0.599000,-0.188000,-0.786000,2.336000,2.061000,2.427000,30.79
0.166387,0.595000,-0.188000,-0.777000,1.878000,1.863000,1.939000,30.74
0.166832,0.603000,-0.192000,-0.782000,1.893000,2.153000,1.817000,30.84
0.167275,0.607000,-0.182000,-0.779000,1.374000,2.031000,1.908000,30.88
0.167705,0.598000,-0.188000,-0.785000,1.221000,2.046000,1.771000,30.79
0.168145,0.602000,-0.195000,-0.782000,1.191000,1.878000,1.603000,30.79
0.168607,0.605000,-0.190000,-0.778000,0.916000,1.878000,1.588000,30.74
0.169077,0.604000,-0.190000,-0.775000,0.916000,1.695000,1.221000,30.84
0.169505,0.597000,-0.189000,-0.780000,0.763000,1.313000,1.359000,30.84
0.169931,0.598000,-0.195000,-0.785000,0.534000,1.282000,1.221000,30.79
0.170353,0.601000,-0.192000,-0.777000,0.534000,1.160000,1.023000,30.88
0.170792,0.595000,-0.192000,-0.778000,0.534000,1.191000,1.191000,30.84
0.171202,0.599000,-0.193000,-0.783000,0.336000,1.313000,0.901000,30.84
0.171636,0.592000,-0.196000,-0.778000,0.305000,1.496000,0.962000,30.84
0.172060,0.598000,-0.199000,-0.780000,-0.031000,1.481000,0.580000,30.88
0.172505,0.591000,-0.197000,-0.779000,-0.229000,1.817000,0.366000,30.88
0.172959,0.590000,-0.197000,-0.784000,-0.260000,1.756000,0.214000,30.74
0.173406,0.588000,-0.201000,-0.782000,-0.595000,1.771000,-0.092000,30.84
0.173857,0.595000,-0.193000,-0.786000,-0.977000,1.969000,-0.290000,30.84
0.174308,0.593000,-0.200000,-0.781000,-0.931000,2.183000,-0.656000,30.79
0.174758,0.593000,-0.192000,-0.782000,-1.053000,2.061000,-0.748000,30.79
0.175215,0.586000,-0.198000,-0.777000,-1.405000,2.153000,-0.992000,30.84
0.175669,0.603000,-0.193000,-0.775000,-1.725000,2.046000,-1.405000,30.84
0.176098,0.598000,-0.193000,-0.783000,-1.450000,1.832000,-1.298000,30.84
0.176533,0.598000,-0.194000,-0.786000,-1.878000,1.832000,-1.374000,30.69
0.176967,0.597000,-0.190000,-0.781000,-1.511000,1.725000,-1.450000,30.79
0.177394,0.601000,-0.198000,-0.789000,-1.374000,1.649000,-1.206000,30.84
0.177811,0.600000,-0.194000,-0.788000,-1.435000,1.511000,-1.191000,30.84
0.178220,0.596000,-0.188000,-0.787000,-0.916000,1.557000,-1.221000,30.74
0.178657,0.588000,-0.187000,-0.783000,-0.198000,1.450000,-1.191000,30.79
0.179076,0.591000,-0.200000,-0.788000,-0.076000,1.573000,-1.145000,30.79
0.179491,0.595000,-0.189000,-0.782000,-0.305000,1.573000,-1.237000,30.84
0.179905,0.592000,-0.177000,-0.784000,-0.290000,1.557000,-1.267000,30.84
0.180328,0.599000,-0.169000,-0.788000,1.221000,1.359000,-0.534000,30.74
0.180865,0.610000,-0.182000,-0.786000,1.466000,1.237000,0.290000,30.88
0.181433,0.592000,-0.192000,-0.787000,1.939000,0.275000,0.656000,30.88
0.181870,0.583000,-0.197000,-0.803000,0.656000,-0.794000,0.092000,30.88
0.182307,0.608000,-0.192000,-0.778000,1.664000,0.840000,0.382000,30.84
0.182744,0.603000,-0.177000,-0.794000,3.237000,-0.153000,1.374000,30.93
0.183182,0.600000,-0.180000,-0.803000,3.908000,-0.336000,2.137000,30.88
0.183672,0.587000,-0.173000,-0.794000,5.466000,-1.191000,3.344000,30.79
0.184157,0.604000,-0.196000,-0.776000,5.954000,0.580000,3.695000,30.88
0.184626,0.584000,-0.200000,-0.785000,6.779000,0.855000,3.832000,30.84
0.185078,0.583000,-0.202000,-0.781000,6.885000,1.466000,3.924000,30.84
0.185504,0.581000,-0.199000,-0.785000,7.466000,2.015000,4.046000,30.88
0.185911,0.587000,-0.207000,-0.799000,7.954000,3.023000,4.305000,30.79
0.186317,0.590000,-0.206000,-0.786000,8.290000,3.893000,4.412000,30.88
0.186723,0.588000,-0.204000,-0.779000,8.397000,4.214000,4.672000,30.74
0.187132,0.585000,-0.215000,-0.775000,8.534000,4.198000,4.458000,30.74
0.187540,0.585000,-0.219000,-0.769000,8.473000,3.740000,4.626000,30.79
0.187953,0.593000,-0.219000,-0.778000,8.534000,3.817000,4.962000,30.79
0.188354,0.587000,-0.222000,-0.789000,8.260000,3.710000,4.763000,30.79
0.188781,0.588000,-0.231000,-0.790000,7.832000,2.977000,4.641000,30.84
0.189193,0.593000,-0.230000,-0.780000,7.908000,2.992000,4.198000,30.74
0.189602,0.598000,-0.225000,-0.794000,8.076000,2.809000,4.473000,30.88
0.190013,0.596000,-0.225000,-0.789000,8.565000,3.115000,4.824000,30.88
0.190519,0.579000,-0.232000,-0.776000,8.336000,2.473000,4.580000,30.79
0.191049,0.594000,-0.236000,-0.779000,7.969000,2.702000,4.519000,30.74
0.191491,0.585000,-0.230000,-0.798000,7.771000,2.214000,4.427000,30.84
0.191931,0.590000,-0.242000,-0.779000,7.832000,2.794000,4.412000,30.79
0.192414,0.594000,-0.236000,-0.783000,7.649000,2.748000,4.550000,30.79
0.192928,0.596000,-0.241000,-0.773000,7.893000,3.084000,4.733000,30.88
0.193403,0.588000,-0.247000,-0.773000,8.305000,2.458000,4.870000,30.74
0.194063,0.597000,-0.257000,-0.790000,8.336000,1.710000,5.282000,30.74
0.194559,0.606000,-0.245000,-0.792000,8.870000,1.786000,5.435000,30.79
0.195030,0.594000,-0.255000,-0.797000,9.603000,0.702000,5.939000,30.79
0.195487,0.587000,-0.260000,-0.780000,9.740000,0.305000,5.893000,30.79
0.195944,0.574000,-0.252000,-0.760000,9.557000,0.000000,5.679000,30.84
0.196394,0.583000,-0.268000,-0.788000,9.511000,-0.870000,5.496000,30.84
0.196828,0.594000,-0.272000,-0.766000,9.786000,-0.473000,5.328000,30.79
0.197255,0.581000,-0.271000,-0.775000,9.634000,-0.427000,5.298000,30.79
0.197717,0.587000,-0.253000,-0.796000,11.511000,-0.733000,6.092000,30.79
0.198182,0.594000,-0.262000,-0.788000,13.481000,-0.718000,7.267000,30.84
0.198725,0.609000,-0.262000,-0.810000,16.519000,-0.718000,9.221000,30.84
0.199315,0.608000,-0.247000,-0.805000,20.183000,-0.885000,11.786000,30.79
0.199808,0.594000,-0.250000,-0.812000,24.214000,-1.603000,14.260000,30.79
0.200315,0.593000,-0.258000,-0.783000,27.298000,-1.786000,16.137000,30.79
0.200814,0.588000,-0.264000,-0.779000,28.947000,-1.328000,17.618000,30.69
0.201367,0.566000,-0.267000,-0.779000,28.672000,-0.763000,18.412000,30.84
0.201880,0.558000,-0.296000,-0.764000,28.015000,-0.702000,18.321000,30.79
0.202395,0.567000,-0.332000,-0.750000,26.076000,-0.595000,17.206000,30.88
0.202838,0.570000,-0.347000,-0.758000,24.534000,-1.191000,16.061000,30.79
0.203268,0.553000,-0.358000,-0.728000,21.527000,-2.015000,14.076000,30.79
0.203729,0.557000,-0.387000,-0.740000,18.412000,-1.740000,11.771000,30.84
0.204181,0.563000,-0.347000,-0.741000,15.420000,-2.626000,10.061000,30.79
0.204612,0.560000,-0.361000,-0.744000,12.840000,-2.718000,8.351000,30.79
0.205061,0.553000,-0.339000,-0.739000,10.412000,-2.840000,6.763000,30.79
0.205576,0.550000,-0.332000,-0.756000,8.779000,-3.023000,5.817000,30.88
0.206177,0.555000,-0.337000,-0.772000,8.275000,-2.641000,5.664000,30.84
0.206645,0.558000,-0.325000,-0.788000,8.504000,-3.053000,5.985000,30.84
0.207136,0.547000,-0.320000,-0.775000,8.840000,-2.870000,5.649000,30.84
0.207589,0.561000,-0.332000,-0.774000,9.221000,-2.046000,5.817000,30.79
0.208021,0.557000,-0.333000,-0.767000,8.763000,-2.122000,5.863000,30.79
0.208446,0.556000,-0.350000,-0.764000,8.595000,-2.000000,5.527000,30.74
0.208880,0.554000,-0.346000,-0.757000,7.756000,-2.534000,5.252000,30.93
0.209329,0.540000,-0.352000,-0.744000,5.847000,-2.122000,4.198000,30.84
0.209793,0.542000,-0.379000,-0.766000,5.053000,-2.412000,3.389000,30.88
0.210262,0.559000,-0.350000,-0.752000,4.000000,-3.191000,2.947000,30.79
0.210711,0.550000,-0.348000,-0.756000,3.160000,-3.832000,2.565000,30.79
0.211131,0.533000,-0.347000,-0.754000,2.046000,-3.466000,1.756000,30.84
0.211548,0.546000,-0.354000,-0.766000,1.756000,-3.817000,1.542000,30.84
0.211965,0.544000,-0.335000,-0.773000,1.634000,-3.115000,1.359000,30.79
0.212380,0.534000,-0.341000,-0.752000,1.145000,-3.481000,1.252000,30.79
0.212823,0.514000,-0.347000,-0.742000,0.626000,-1.893000,1.038000,30.88
0.213261,0.527000,-0.340000,-0.764000,0.107000,-0.840000,0.779000,30.84
0.213717,0.539000,-0.340000,-0.761000,0.214000,-0.153000,0.702000,30.84
0.214153,0.532000,-0.346000,-0.766000,0.153000,0.489000,0.916000,30.79
0.214571,0.547000,-0.341000,-0.780000,0.794000,0.290000,1.191000,30.79
0.214984,0.555000,-0.348000,-0.783000,1.710000,0.550000,2.137000,30.79
0.215424,0.546000,-0.347000,-0.779000,3.038000,0.641000,3.069000,30.84
0.215839,0.547000,-0.355000,-0.786000,4.214000,0.290000,3.924000,30.74
0.216255,0.550000,-0.344000,-0.782000,5.084000,0.397000,4.763000,30.79
0.216706,0.558000,-0.336000,-0.803000,7.160000,0.092000,5.710000,30.88
0.217122,0.544000,-0.326000,-0.778000,8.702000,-0.412000,7.206000,30.79
0.217542,0.523000,-0.344000,-0.776000,10.076000,0.092000,7.450000,30.84
0.217963,0.521000,-0.357000,-0.755000,10.168000,0.656000,7.237000,30.84
0.218389,0.510000,-0.358000,-0.750000,9.160000,1.450000,6.519000,30.79
0.218849,0.507000,-0.362000,-0.737000,7.405000,2.153000,5.313000,30.79
0.219317,0.503000,-0.375000,-0.731000,5.573000,3.008000,3.725000,30.88
0.219734,0.505000,-0.386000,-0.734000,3.267000,3.740000,2.260000,30.84
0.220155,0.516000,-0.391000,-0.741000,1.466000,4.611000,1.053000,30.84
0.220568,0.543000,-0.386000,-0.757000,0.580000,4.305000,0.565000,30.84
0.221005,0.514000,-0.384000,-0.739000,-1.145000,4.229000,-0.611000,30.88
0.221422,0.478000,-0.404000,-0.715000,-3.832000,5.695000,-2.702000,30.79
0.221840,0.500000,-0.386000,-0.724000,-6.366000,7.053000,-4.489000,30.84
0.222249,0.505000,-0.362000,-0.720000,-8.534000,8.183000,-6.290000,30.93
0.222680,0.514000,-0.401000,-0.742000,-10.305000,9.191000,-7.481000,30.84
0.223099,0.546000,-0.384000,-0.763000,-10.733000,8.550000,-7.878000,30.79
0.223525,0.541000,-0.381000,-0.766000,-10.962000,7.481000,-8.015000,30.79
0.224116,0.552000,-0.388000,-0.750000,-11.298000,7.145000,-8.504000,30.84
0.224557,0.541000,-0.367000,-0.761000,-11.634000,6.489000,-8.321000,30.84
0.224977,0.546000,-0.369000,-0.759000,-11.802000,5.939000,-8.473000,30.93
0.225397,0.560000,-0.364000,-0.781000,-10.901000,5.710000,-8.000000,30.79
0.225830,0.564000,-0.342000,-0.780000,-10.015000,4.885000,-6.947000,30.79
0.226243,0.531000,-0.359000,-0.754000,-9.985000,5.023000,-7.115000,30.74
0.226669,0.532000,-0.367000,-0.751000,-11.038000,5.740000,-7.969000,30.84
0.227092,0.537000,-0.362000,-0.755000,-12.580000,5.969000,-9.130000,30.74
0.227535,0.533000,-0.369000,-0.754000,-14.443000,6.305000,-10.595000,30.79
0.227946,0.543000,-0.369000,-0.759000,-15.802000,6.198000,-11.344000,30.88
0.228365,0.548000,-0.345000,-0.752000,-16.947000,5.634000,-12.565000,30.79
0.228809,0.541000,-0.364000,-0.760000,-18.870000,5.466000,-13.649000,30.84
0.229249,0.544000,-0.372000,-0.759000,-20.321000,6.015000,-14.992000,30.84
0.229663,0.562000,-0.353000,-0.767000,-21.496000,5.496000,-15.344000,30.79
0.230083,0.543000,-0.358000,-0.752000,-22.321000,5.115000,-16.076000,30.79
0.230496,0.547000,-0.342000,-0.740000,-23.695000,5.145000,-16.382000,30.79
0.230914,0.548000,-0.332000,-0.747000,-25.008000,4.824000,-16.824000,30.84
0.231341,0.532000,-0.321000,-0.741000,-27.450000,4.504000,-18.214000,30.84
0.231764,0.535000,-0.281000,-0.777000,-29.313000,7.130000,-19.053000,30.79
0.232191,0.604000,-0.280000,-0.912000,-27.069000,10.168000,-17.267000,30.88
0.232615,0.493000,-0.413000,-0.749000,-29.023000,11.389000,-18.947000,30.88
0.233044,0.518000,-0.478000,-0.653000,-37.817000,12.427000,-25.618000,30.84
0.233468,0.620000,-0.320000,-0.748000,-43.527000,10.550000,-28.214000,30.84
0.234020,0.606000,-0.255000,-0.782000,-44.473000,7.985000,-28.107000,30.84
0.234610,0.580000,-0.298000,-0.762000,-44.672000,5.740000,-28.214000,30.79
0.235098,0.534000,-0.304000,-0.747000,-46.748000,3.573000,-30.122000,30.79
0.235539,0.580000,-0.272000,-0.755000,-46.977000,1.588000,-30.748000,30.84
0.235979,0.633000,-0.159000,-0.787000,-42.702000,-0.672000,-27.710000,30.84
0.236400,0.685000,-0.088000,-0.867000,-34.779000,-1.969000,-21.328000,30.84
0.236820,0.630000,-0.093000,-0.843000,-24.824000,-2.947000,-13.863000,30.79
0.237236,0.611000,-0.145000,-0.857000,-16.107000,-1.145000,-7.313000,30.79
0.237658,0.589000,-0.143000,-0.853000,-8.214000,0.748000,-2.260000,30.93
0.238073,0.578000,-0.151000,-0.856000,-2.672000,2.718000,1.389000,30.74
0.238475,0.582000,-0.181000,-0.823000,1.038000,4.885000,3.145000,30.84
0.238894,0.558000,-0.220000,-0.812000,2.092000,6.443000,4.443000,30.88
0.239299,0.543000,-0.235000,-0.797000,2.473000,6.809000,3.542000,30.79
0.239699,0.556000,-0.239000,-0.775000,1.939000,6.595000,2.809000,30.88
0.240115,0.566000,-0.241000,-0.771000,1.267000,6.977000,1.924000,30.84
0.240523,0.573000,-0.232000,-0.763000,0.763000,6.626000,1.450000,30.84
0.240969,0.567000,-0.234000,-0.771000,-0.107000,6.214000,1.160000,30.79
0.241383,0.571000,-0.246000,-0.771000,-1.573000,5.817000,0.412000,30.79
0.241801,0.570000,-0.247000,-0.773000,-2.779000,4.947000,-0.076000,30.79
0.242214,0.580000,-0.257000,-0.793000,-3.191000,4.687000,-0.702000,30.84
0.242636,0.576000,-0.249000,-0.795000,-3.191000,4.122000,-0.794000,30.93
0.243062,0.578000,-0.242000,-0.779000,-3.267000,3.771000,-1.221000,30.88
0.243628,0.579000,-0.247000,-0.773000,-4.122000,3.450000,-1.496000,30.79
0.244072,0.569000,-0.245000,-0.777000,-4.947000,3.160000,-2.122000,30.88
0.244487,0.570000,-0.240000,-0.777000,-5.588000,3.221000,-2.855000,30.74
0.244906,0.578000,-0.233000,-0.782000,-5.771000,3.420000,-3.099000,30.93
0.245326,0.580000,-0.225000,-0.784000,-6.153000,3.267000,-3.405000,30.88
0.245740,0.581000,-0.226000,-0.786000,-6.198000,2.947000,-3.405000,30.79
0.246150,0.571000,-0.218000,-0.797000,-6.183000,2.672000,-3.588000,30.79
0.246566,0.570000,-0.223000,-0.774000,-6.260000,2.534000,-3.817000,30.84
0.246977,0.589000,-0.223000,-0.799000,-5.832000,2.366000,-3.435000,30.93
0.247391,0.593000,-0.213000,-0.802000,-4.183000,2.382000,-2.443000,30.79
0.247799,0.580000,-0.203000,-0.808000,-2.763000,1.954000,-1.374000,30.88
0.248217,0.575000,-0.210000,-0.797000,-1.863000,2.092000,-0.809000,30.79
0.248649,0.576000,-0.212000,-0.783000,-1.344000,2.198000,-0.550000,30.79
0.249066,0.573000,-0.229000,-0.797000,-1.023000,2.763000,-0.611000,30.74
0.249483,0.573000,-0.235000,-0.792000,-1.649000,3.053000,-1.084000,30.84
0.249910,0.570000,-0.239000,-0.782000,-2.550000,3.298000,-1.664000,30.74
0.250319,0.573000,-0.231000,-0.788000,-3.374000,3.328000,-2.290000,30.79
0.250737,0.572000,-0.227000,-0.777000,-4.061000,3.069000,-2.809000,30.79
0.251148,0.566000,-0.232000,-0.770000,-5.282000,2.885000,-3.679000,30.84
0.251571,0.569000,-0.236000,-0.779000,-6.580000,2.672000,-4.519000,30.84
0.252005,0.566000,-0.229000,-0.773000,-7.389000,2.534000,-5.344000,30.84
0.252421,0.579000,-0.227000,-0.781000,-7.969000,2.229000,-5.954000,30.79
0.252830,0.575000,-0.221000,-0.781000,-8.565000,2.260000,-6.153000,30.88
0.253246,0.585000,-0.219000,-0.796000,-8.137000,2.168000,-6.183000,30.79
0.253683,0.571000,-0.211000,-0.783000,-7.435000,2.290000,-5.817000,30.84
0.254108,0.552000,-0.213000,-0.782000,-6.687000,3.282000,-6.046000,30.74
0.254522,0.569000,-0.207000,-0.791000,-5.939000,4.840000,-6.244000,30.79
0.254933,0.576000,-0.188000,-0.795000,-4.122000,6.168000,-5.710000,30.88
0.255348,0.580000,-0.186000,-0.804000,-2.504000,7.221000,-5.099000,30.88
0.255765,0.586000,-0.175000,-0.809000,-0.611000,7.344000,-4.000000,30.74
0.256169,0.584000,-0.178000,-0.805000,0.916000,7.710000,-2.824000,30.84
0.256581,0.581000,-0.181000,-0.796000,2.733000,7.344000,-1.557000,30.93
0.256992,0.586000,-0.198000,-0.803000,3.969000,7.344000,-0.992000,30.88
0.257404,0.578000,-0.203000,-0.786000,5.176000,7.481000,-0.153000,30.79
0.257812,0.582000,-0.195000,-0.792000,6.092000,7.649000,0.565000,30.84
0.258219,0.594000,-0.208000,-0.791000,6.901000,7.847000,1.023000,30.74
0.258641,0.581000,-0.214000,-0.786000,7.466000,7.328000,1.344000,30.84
0.259050,0.589000,-0.222000,-0.795000,7.527000,7.252000,1.435000,30.88
0.259458,0.585000,-0.234000,-0.788000,6.855000,7.176000,0.611000,30.88
0.259887,0.585000,-0.246000,-0.785000,5.664000,7.115000,-0.076000,30.88
0.260316,0.584000,-0.223000,-0.785000,5.099000,6.901000,-0.580000,30.84
0.260746,0.589000,-0.226000,-0.784000,4.992000,6.855000,-0.870000,30.74
0.261149,0.603000,-0.228000,-0.779000,4.412000,5.969000,-0.641000,30.79
0.261565,0.594000,-0.213000,-0.785000,4.962000,5.481000,-0.611000,30.79
0.261974,0.590000,-0.208000,-0.786000,5.405000,5.328000,0.092000,30.79
0.262388,0.589000,-0.216000,-0.777000,6.183000,5.634000,0.534000,30.74
0.262792,0.579000,-0.220000,-0.784000,6.763000,5.985000,1.176000,30.84
0.263201,0.585000,-0.230000,-0.784000,6.489000,6.321000,1.298000,30.88
0.263725,0.585000,-0.237000,-0.790000,5.282000,6.809000,0.458000,30.79
0.264316,0.589000,-0.258000,-0.773000,4.168000,7.221000,-1.145000,30.79
0.264761,0.596000,-0.251000,-0.781000,1.924000,7.069000,-2.504000,30.84
0.265249,0.590000,-0.251000,-0.767000,-0.489000,6.626000,-3.786000,30.84
0.265710,0.592000,-0.253000,-0.774000,-2.153000,4.992000,-4.916000,30.74
0.266147,0.592000,-0.253000,-0.770000,-3.344000,5.053000,-5.573000,30.88
0.266579,0.590000,-0.249000,-0.770000,-4.427000,3.664000,-6.305000,30.79
0.267013,0.595000,-0.232000,-0.764000,-5.542000,4.305000,-7.237000,30.84
0.267450,0.594000,-0.234000,-0.778000,-6.412000,3.435000,-7.756000,30.84
0.267885,0.601000,-0.224000,-0.776000,-6.244000,3.618000,-7.771000,30.93
0.268392,0.594000,-0.225000,-0.784000,-6.290000,4.092000,-7.328000,30.88
0.268921,0.602000,-0.222000,-0.781000,-6.244000,4.076000,-7.328000,30.79
0.269370,0.597000,-0.221000,-0.778000,-5.802000,3.939000,-6.443000,30.79
0.269787,0.599000,-0.223000,-0.777000,-5.466000,3.496000,-6.214000,30.84
0.270213,0.602000,-0.228000,-0.787000,-5.786000,3.435000,-6.122000,30.74
0.270639,0.610000,-0.231000,-0.782000,-6.015000,2.931000,-5.954000,30.79
0.271056,0.609000,-0.217000,-0.776000,-5.863000,2.321000,-5.740000,30.79
0.271483,0.603000,-0.220000,-0.780000,-6.107000,2.092000,-5.466000,30.79
0.271896,0.611000,-0.216000,-0.784000,-6.153000,1.542000,-5.282000,30.74
0.272334,0.601000,-0.222000,-0.778000,-6.153000,1.603000,-5.191000,30.84
0.272750,0.605000,-0.224000,-0.791000,-6.382000,1.359000,-5.481000,30.79
0.273168,0.601000,-0.210000,-0.784000,-6.427000,1.084000,-5.298000,30.88
0.273600,0.594000,-0.210000,-0.784000,-6.458000,1.023000,-5.145000,30.79
0.274025,0.597000,-0.208000,-0.775000,-6.275000,1.237000,-5.084000,30.84
0.274447,0.595000,-0.206000,-0.782000,-6.244000,1.328000,-4.855000,30.84
0.274874,0.598000,-0.207000,-0.777000,-6.336000,1.023000,-4.931000,30.88
0.275291,0.600000,-0.205000,-0.774000,-6.855000,0.977000,-4.840000,30.79
0.275719,0.593000,-0.208000,-0.774000,-7.450000,0.382000,-5.298000,30.79
0.276143,0.593000,-0.210000,-0.782000,-8.840000,-0.504000,-5.893000,30.84
0.276570,0.598000,-0.217000,-0.769000,-9.649000,-1.282000,-6.595000,30.84
0.277020,0.593000,-0.207000,-0.776000,-10.595000,-2.153000,-7.008000,30.79
0.277468,0.592000,-0.210000,-0.775000,-11.160000,-3.298000,-7.313000,30.88
0.277902,0.598000,-0.214000,-0.796000,-11.679000,-4.076000,-7.588000,30.88
0.278419,0.597000,-0.211000,-0.781000,-11.908000,-4.183000,-8.000000,30.84
0.279063,0.598000,-0.207000,-0.787000,-11.908000,-4.443000,-7.878000,30.84
0.279566,0.594000,-0.200000,-0.785000,-11.481000,-4.473000,-7.863000,30.88
0.280035,0.594000,-0.198000,-0.785000,-10.947000,-4.656000,-7.481000,30.88
0.280484,0.585000,-0.198000,-0.783000,-10.443000,-4.611000,-7.618000,30.79
0.280928,0.590000,-0.188000,-0.791000,-10.473000,-4.153000,-7.466000,30.84
0.281370,0.580000,-0.184000,-0.798000,-9.878000,-2.992000,-7.496000,30.74
0.281813,0.586000,-0.190000,-0.793000,-10.092000,-2.137000,-7.252000,30.88
0.282254,0.587000,-0.181000,-0.812000,-9.832000,-1.191000,-6.977000,30.88
0.282686,0.598000,-0.187000,-0.809000,-9.771000,0.183000,-6.565000,30.79
0.283120,0.591000,-0.182000,-0.806000,-9.893000,0.748000,-6.443000,30.93
0.283549,0.603000,-0.179000,-0.805000,-9.511000,1.511000,-6.031000,30.93
0.284039,0.587000,-0.181000,-0.801000,-9.206000,1.328000,-6.061000,30.79
0.284564,0.596000,-0.185000,-0.793000,-9.221000,1.206000,-5.649000,30.69
0.285120,0.602000,-0.174000,-0.795000,-8.595000,0.931000,-5.298000,30.88
0.285585,0.597000,-0.177000,-0.800000,-8.519000,1.145000,-4.855000,30.79
0.286017,0.593000,-0.165000,-0.792000,-8.076000,1.069000,-4.122000,30.84
0.286442,0.589000,-0.156000,-0.799000,-7.023000,0.992000,-3.557000,30.79
0.286871,0.588000,-0.146000,-0.801000,-5.817000,1.435000,-2.214000,30.88
0.293899,0.584000,-0.135000,-0.812000,-4.504000,2.046000,-0.931000,30.79
0.303905,0.582000,-0.149000,-0.808000,-3.542000,2.840000,0.290000,30.88
0.313874,0.582000,-0.145000,-0.800000,-2.626000,3.176000,1.099000,30.84
0.323894,0.591000,-0.149000,-0.803000,-1.802000,3.893000,2.061000,30.93
0.333938,0.588000,-0.150000,-0.806000,-1.206000,4.260000,2.702000,30.84
0.343955,0.584000,-0.155000,-0.798000,-0.153000,4.412000,3.664000,30.79
0.353939,0.594000,-0.165000,-0.790000,0.015000,3.557000,3.756000,30.88
0.364073,0.586000,-0.177000,-0.795000,-0.015000,3.252000,3.695000,30.84
0.373983,0.579000,-0.179000,-0.789000,-0.641000,2.824000,3.099000,30.84
0.383969,0.587000,-0.188000,-0.788000,-1.084000,2.504000,2.443000,30.84
0.393912,0.583000,-0.192000,-0.792000,-1.542000,2.092000,1.878000,30.79
0.404073,0.582000,-0.184000,-0.804000,-1.924000,1.603000,1.267000,30.88
0.413984,0.586000,-0.183000,-0.789000,-2.244000,1.191000,0.885000,30.74
0.423973,0.593000,-0.172000,-0.793000,-2.351000,0.901000,0.656000,30.84
0.433999,0.585000,-0.166000,-0.797000,-1.908000,1.221000,0.855000,30.74
0.443992,0.585000,-0.157000,-0.796000,-0.992000,1.450000,1.344000,30.88
0.454035,0.582000,-0.146000,-0.808000,0.198000,2.092000,2.198000,30.88
0.464027,0.586000,-0.158000,-0.797000,1.496000,2.244000,2.870000,30.88
0.474033,0.584000,-0.151000,-0.807000,2.947000,2.840000,3.817000,30.84
0.484076,0.572000,-0.153000,-0.799000,4.580000,3.359000,4.763000,30.74
0.494068,0.585000,-0.170000,-0.803000,6.061000,3.725000,5.588000,30.88
0.504110,0.582000,-0.163000,-0.805000,7.221000,3.786000,6.534000,30.79
0.514114,0.577000,-0.171000,-0.797000,8.824000,4.092000,7.053000,30.79
0.523983,0.584000,-0.181000,-0.800000,9.511000,4.519000,7.359000,30.74
0.536398,0.595000,-0.177000,-0.796000,10.947000,4.092000,8.076000,30.74
0.545909,0.600000,-0.165000,-0.788000,12.427000,3.435000,8.901000,30.84
0.556912,0.591000,-0.176000,-0.791000,13.954000,2.824000,9.771000,30.79
0.564059,0.576000,-0.169000,-0.786000,16.183000,3.023000,10.809000,30.69
0.573946,0.562000,-0.193000,-0.796000,17.389000,2.977000,11.176000,30.84
0.584135,0.563000,-0.228000,-0.786000,16.901000,3.649000,10.443000,30.84
0.594778,0.566000,-0.225000,-0.782000,16.351000,4.260000,9.832000,30.84
0.604029,0.579000,-0.209000,-0.795000,16.107000,4.550000,9.573000,30.88
0.614089,0.590000,-0.218000,-0.790000,15.786000,4.672000,9.634000,30.79
0.624044,0.597000,-0.224000,-0.795000,15.802000,3.908000,9.725000,30.88
0.634664,0.592000,-0.219000,-0.788000,16.565000,3.069000,10.153000,30.74
0.645650,0.607000,-0.219000,-0.804000,17.618000,2.397000,10.794000,30.84
0.658521,0.602000,-0.226000,-0.805000,19.618000,2.611000,11.817000,30.79
0.665630,0.600000,-0.234000,-0.802000,20.718000,3.420000,13.237000,30.88
0.682890,0.615000,-0.230000,-0.827000,24.885000,3.176000,15.145000,30.79
0.686761,0.591000,-0.251000,-0.807000,27.237000,7.160000,16.305000,30.93
0.695368,0.586000,-0.258000,-0.798000,28.153000,6.824000,16.885000,30.84
0.704103,0.572000,-0.298000,-0.791000,26.550000,8.901000,15.878000,30.79
0.713945,0.618000,-0.340000,-0.809000,22.885000,8.870000,13.985000,30.79
0.723930,0.642000,-0.365000,-0.809000,18.504000,6.534000,12.473000,30.88
0.733897,0.611000,-0.395000,-0.769000,12.061000,5.298000,9.405000,30.84
0.743960,0.550000,-0.483000,-0.743000,0.931000,5.191000,3.344000,30.84
0.753937,0.436000,-0.568000,-0.704000,-16.290000,8.336000,-7.954000,30.84
0.763928,0.278000,-0.552000,-0.704000,-33.221000,16.656000,-21.115000,30.88
0.773913,0.257000,-0.445000,-0.780000,-43.130000,34.718000,-33.771000,30.79
0.783912,0.266000,-0.417000,-0.804000,-43.908000,44.305000,-47.038000,30.84
0.794034,0.636000,-0.546000,-0.876000,-63.282000,80.580000,-67.847000,30.84
0.803972,0.126000,-0.502000,-0.983000,-22.321000,121.664000,-68.885000,30.84
0.813934,0.515000,-0.280000,-1.236000,-32.473000,94.962000,-80.153000,30.79
0.823933,0.517000,-0.553000,-1.530000,-13.832000,78.550000,-84.351000,30.79
0.833930,0.092000,-1.550000,-1.654000,-22.626000,61.191000,-45.130000,30.79
0.843997,-0.183000,-1.818000,-1.182000,-29.496000,49.466000,12.534000,30.84
0.854049,-0.035000,-1.457000,-1.207000,-22.519000,50.427000,56.641000,30.74
0.864033,-0.352000,-0.895000,-1.232000,-20.580000,37.115000,78.687000,30.79
0.874111,-0.439000,-0.421000,-1.212000,-8.962000,23.756000,69.939000,30.88
0.884076,-0.360000,-0.220000,-1.393000,-0.595000,2.840000,48.779000,30.79
0.894185,-0.221000,-0.194000,-1.461000,2.214000,-27.603000,27.954000,30.84
0.904123,-0.181000,-0.201000,-1.422000,4.061000,-49.221000,11.908000,30.93
0.914125,-0.135000,-0.231000,-1.306000,1.893000,-65.771000,2.046000,30.88
0.924172,-0.083000,-0.242000,-1.159000,1.084000,-74.061000,-2.565000,30.79
0.934235,-0.007000,-0.273000,-1.083000,3.115000,-78.000000,-2.901000,30.88
0.944087,0.114000,-0.327000,-1.036000,5.695000,-79.420000,0.595000,30.84
0.954228,0.193000,-0.373000,-0.965000,7.160000,-80.244000,6.656000,30.74
0.964229,0.255000,-0.433000,-0.901000,7.939000,-78.534000,13.878000,30.88
0.974052,0.318000,-0.437000,-0.834000,7.023000,-73.542000,22.351000,30.79
0.983965,0.307000,-0.437000,-0.746000,3.298000,-64.504000,30.534000,30.79
0.994268,0.316000,-0.430000,-0.675000,0.641000,-49.969000,38.137000,30.84
1.004309,0.410000,-0.415000,-0.733000,2.427000,-34.840000,48.458000,30.84
1.014186,0.532000,-0.388000,-0.823000,9.496000,-21.237000,62.992000,30.79
1.024087,0.685000,-0.353000,-0.919000,15.618000,-14.519000,77.786000,30.79
1.034026,0.737000,-0.300000,-0.945000,11.023000,-14.214000,85.557000,30.84
1.043973,0.700000,-0.170000,-0.917000,2.840000,-13.206000,82.962000,30.84
1.053955,0.650000,0.020000,-0.856000,-1.832000,-12.550000,71.405000,30.84
1.063898,0.690000,0.081000,-0.941000,5.420000,-10.763000,56.443000,30.69
1.073927,0.826000,0.140000,-1.008000,18.870000,-17.344000,43.359000,30.88
1.083929,0.878000,0.051000,-1.007000,26.656000,-28.656000,30.351000,30.79
1.094004,0.894000,-0.005000,-0.943000,27.405000,-34.824000,16.641000,30.84
1.103935,0.851000,0.014000,-0.853000,28.580000,-48.473000,4.748000,30.84
1.113914,0.779000,0.027000,-0.728000,30.244000,-46.519000,-6.992000,30.88
1.123993,0.785000,-0.017000,-0.691000,34.748000,-43.573000,-14.809000,30.79
1.138322,0.834000,-0.060000,-0.709000,41.695000,-45.969000,-17.740000,30.79
1.145096,0.937000,-0.146000,-0.734000,47.802000,-50.412000,-16.229000,30.84
1.155552,0.952000,-0.225000,-0.716000,46.779000,-56.336000,-12.305000,30.84
1.164424,0.948000,-0.225000,-0.649000,43.099000,-63.786000,-7.954000,30.79
1.175875,0.895000,-0.187000,-0.549000,35.679000,-64.931000,-3.786000,30.79
1.186085,0.848000,-0.165000,-0.425000,28.443000,-59.145000,-0.794000,30.79
1.194319,0.851000,-0.174000,-0.362000,20.366000,-48.885000,2.779000,30.65
1.203991,0.926000,-0.210000,-0.336000,11.344000,-39.985000,8.992000,30.84
1.213922,0.968000,-0.258000,-0.298000,-1.115000,-32.107000,16.137000,30.79
1.223904,0.879000,-0.233000,-0.237000,-10.412000,-30.061000,23.359000,30.69
1.233883,0.922000,-0.079000,0.353000,-39.145000,-9.481000,8.015000,30.79
1.244003,1.277000,0.190000,0.540000,-33.603000,49.771000,6.382000,30.84
1.253936,1.662000,0.099000,0.621000,-24.198000,78.550000,13.252000,30.74
1.263918,1.978000,0.049000,0.923000,-24.382000,108.870000,17.206000,30.79
1.273965,1.191000,0.031000,0.555000,-19.832000,130.092000,19.374000,30.79
1.283994,1.139000,-0.254000,-1.455000,-21.603000,109.481000,18.336000,30.88
1.294056,0.990000,0.152000,-2.173000,-30.595000,54.092000,-14.076000,30.93
1.303960,0.191000,0.601000,-1.399000,-11.038000,39.023000,-35.771000,30.84
1.313923,0.323000,-0.010000,-0.708000,9.908000,33.679000,-43.771000,30.79
1.323923,1.290000,-0.659000,-1.009000,13.725000,78.870000,-32.870000,30.88
1.333987,1.198000,-0.707000,-1.024000,-18.382000,31.664000,-36.947000,30.79
1.344096,0.636000,-0.083000,-0.868000,-18.122000,34.565000,-34.885000,30.93
1.354008,0.444000,0.044000,-0.948000,-8.947000,37.817000,-30.916000,30.84
1.363993,0.751000,-0.191000,-0.969000,-12.885000,38.321000,-26.992000,30.88
1.374097,0.877000,-0.347000,-0.940000,-16.275000,30.000000,-18.107000,30.79
1.384031,0.660000,-0.243000,-0.959000,-9.344000,19.374000,-9.267000,30.79
1.394101,0.581000,-0.234000,-0.917000,-0.748000,12.107000,-4.916000,30.84
1.404169,0.625000,-0.467000,-0.799000,-1.618000,18.809000,-2.290000,30.84
1.414116,0.545000,-0.479000,-0.719000,-6.198000,25.542000,-3.313000,30.79
1.424160,0.495000,-0.409000,-0.726000,-8.779000,24.779000,-6.397000,30.88
1.434228,0.524000,-0.433000,-0.730000,-14.137000,25.008000,-9.786000,30.79
1.444228,0.529000,-0.403000,-0.773000,-21.527000,27.435000,-13.832000,30.84
1.454195,0.531000,-0.355000,-0.777000,-26.962000,26.473000,-17.603000,30.74
1.464204,0.541000,-0.380000,-0.748000,-32.153000,25.374000,-22.153000,30.88
1.474284,0.631000,-0.394000,-0.833000,-36.473000,23.221000,-25.450000,30.79
1.484383,0.606000,-0.285000,-0.789000,-33.069000,18.183000,-25.237000,30.79
1.494183,0.614000,-0.321000,-0.793000,-31.267000,16.901000,-25.130000,30.93
1.503964,0.613000,-0.286000,-0.800000,-30.351000,12.656000,-26.275000,30.84
1.513960,0.613000,-0.285000,-0.780000,-29.053000,13.084000,-26.763000,30.79
1.524098,0.590000,-0.294000,-0.800000,-27.710000,11.985000,-26.779000,30.79
1.534092,0.591000,-0.207000,-0.764000,-24.672000,8.748000,-25.588000,30.79
1.544106,0.605000,-0.215000,-0.801000,-22.824000,6.550000,-24.733000,30.79
1.554112,0.602000,-0.270000,-0.788000,-21.038000,7.053000,-24.260000,30.84
1.564115,0.603000,-0.252000,-0.766000,-18.824000,7.817000,-23.008000,30.79
1.574137,0.615000,-0.174000,-0.796000,-15.084000,10.244000,-19.588000,30.79
1.584168,0.610000,-0.180000,-0.801000,-10.336000,11.908000,-16.061000,30.88
1.594322,0.594000,-0.187000,-0.805000,-6.962000,14.519000,-13.450000,30.79
1.604122,0.590000,-0.212000,-0.794000,-4.656000,18.153000,-12.046000,30.84
1.614156,0.598000,-0.185000,-0.802000,-2.534000,19.878000,-10.840000,30.88
1.624114,0.592000,-0.200000,-0.762000,-1.817000,23.267000,-10.366000,30.79
1.634239,0.578000,-0.214000,-0.761000,-0.931000,25.725000,-9.573000,30.79
1.644326,0.610000,-0.196000,-0.783000,0.214000,27.008000,-9.542000,30.79
1.654257,0.614000,-0.211000,-0.772000,-0.351000,28.183000,-9.725000,30.84
1.664263,0.616000,-0.213000,-0.772000,-0.641000,31.221000,-10.198000,30.79
1.674299,0.618000,-0.233000,-0.770000,-1.832000,33.191000,-11.405000,30.79
1.684189,0.669000,-0.218000,-0.789000,-3.634000,36.840000,-12.672000,30.79
1.694366,0.619000,-0.211000,-0.759000,-2.519000,39.710000,-12.443000,30.88
1.704267,0.608000,-0.204000,-0.750000,-1.405000,42.153000,-13.527000,30.93
1.714270,0.602000,-0.217000,-0.756000,-0.137000,48.290000,-15.267000,30.79
1.724437,0.560000,-0.265000,-0.740000,-1.359000,55.145000,-16.885000,30.88
1.734282,0.609000,-0.307000,-0.771000,-3.313000,62.061000,-20.885000,30.79
1.745250,0.658000,-0.250000,-0.739000,-6.214000,72.916000,-21.878000,30.88
1.754398,0.601000,-0.247000,-0.778000,-7.588000,83.328000,-23.344000,30.84
1.764217,0.631000,-0.245000,-0.741000,-7.939000,95.481000,-25.252000,30.79
1.774301,0.667000,-0.172000,-0.727000,-9.344000,108.626000,-26.748000,30.88
1.784300,0.640000,-0.184000,-0.729000,-8.824000,123.710000,-28.122000,30.88
1.794374,0.571000,-0.629000,-1.143000,-2.504000,129.313000,-35.084000,30.79
1.804505,0.572000,-0.104000,-0.628000,-8.229000,153.649000,-38.763000,30.84
1.814439,0.729000,-0.105000,-0.697000,-4.397000,150.779000,-34.153000,30.84
1.824424,0.773000,-0.721000,-0.908000,-6.977000,159.573000,-34.794000,30.74
1.834426,0.777000,0.083000,-0.620000,-4.275000,163.206000,-41.878000,30.69
1.844395,0.473000,-1.164000,-0.720000,-34.397000,183.359000,-19.466000,30.79
1.854460,0.878000,-1.110000,-1.116000,-53.237000,220.656000,-40.718000,30.84
1.864511,0.299000,-1.491000,0.191000,29.420000,253.542000,-62.779000,30.84
1.874357,0.904000,-0.166000,-0.566000,-41.817000,213.527000,-80.443000,30.84
1.884192,1.117000,-0.403000,-0.531000,-85.664000,310.260000,-94.870000,30.88
1.897534,0.978000,0.081000,-0.781000,-59.405000,319.160000,-104.809000,30.88
1.907342,0.873000,-0.937000,-1.135000,-61.130000,455.008000,-97.252000,30.74
1.915905,1.396000,-0.194000,-0.901000,7.008000,267.939000,-91.603000,30.84
1.924970,1.715000,-0.270000,-0.902000,25.618000,384.458000,-88.458000,30.84
1.935032,2.447000,-0.430000,-1.601000,98.702000,373.618000,-59.038000,30.88
1.943969,2.061000,-0.298000,-1.169000,140.840000,261.618000,-45.817000,30.79
1.954020,1.635000,-0.138000,-1.139000,115.939000,251.450000,-62.824000,30.74
1.963906,1.594000,-0.345000,-1.499000,53.924000,235.679000,-80.504000,30.84
1.973877,0.773000,-0.360000,-1.559000,31.130000,237.878000,-88.412000,30.84
1.983912,0.548000,-0.405000,-2.005000,43.023000,135.771000,-53.389000,30.88
1.993983,0.175000,-3.511000,-4.000000,34.763000,-43.786000,44.504000,30.79
2.003959,1.508000,-2.525000,-3.209000,-142.031000,-189.588000,56.595000,30.88
2.013917,-1.536000,-1.070000,-1.417000,-213.115000,-255.557000,53.206000,30.84
2.023930,-0.460000,-0.056000,-1.582000,-30.443000,-270.840000,39.695000,30.84
2.033980,0.096000,0.174000,-1.748000,-27.359000,-216.031000,51.634000,30.79
2.044046,-0.050000,-0.209000,-1.422000,57.863000,-282.794000,65.679000,30.88
2.054017,0.296000,-0.501000,-1.234000,74.534000,-255.863000,52.809000,30.88
2.063931,0.463000,-0.487000,-0.988000,56.611000,-239.802000,27.817000,30.74
2.073993,0.738000,-0.240000,-0.905000,54.137000,-264.229000,12.046000,30.84
2.083990,0.908000,-0.062000,-0.847000,65.191000,-266.122000,2.336000,30.88
2.093939,1.261000,-0.374000,-1.258000,70.916000,-254.504000,-7.206000,30.88
2.104000,1.009000,-0.381000,-0.687000,64.748000,-227.939000,-3.038000,30.79
2.113985,1.281000,-0.480000,-0.823000,61.450000,-246.656000,1.664000,30.84
2.124024,1.491000,-0.428000,-1.026000,54.748000,-248.000000,8.687000,30.84
2.134075,1.185000,-0.292000,-0.727000,54.901000,-256.626000,15.618000,30.88
2.144173,1.143000,-0.173000,-0.494000,61.160000,-246.672000,15.237000,30.88
2.154140,0.967000,-0.328000,-0.483000,63.542000,-228.473000,18.763000,30.79
2.164125,0.920000,-0.417000,-0.573000,61.267000,-211.847000,29.099000,30.74
2.174093,0.928000,-0.467000,-0.546000,55.496000,-191.389000,44.992000,30.84
2.184124,0.976000,-0.464000,-0.630000,54.015000,-180.351000,65.252000,30.88
2.194154,0.849000,-0.385000,-0.581000,48.336000,-160.122000,81.573000,30.88
2.204135,0.733000,-0.301000,-0.588000,39.985000,-140.305000,92.076000,30.88
2.214022,0.740000,-0.219000,-0.714000,35.191000,-120.519000,95.328000,30.93
2.223961,0.798000,-0.119000,-0.810000,38.748000,-98.962000,97.786000,30.93
2.233948,0.818000,-0.111000,-0.871000,48.580000,-91.099000,100.122000,30.79
2.244195,0.922000,-0.172000,-0.891000,64.718000,-93.252000,105.267000,30.88
2.254172,0.976000,-0.126000,-0.989000,74.122000,-83.252000,111.863000,30.79
2.264201,1.063000,-0.129000,-0.931000,81.191000,-85.023000,116.824000,30.84
2.274266,1.153000,-0.062000,-0.936000,83.466000,-88.244000,117.115000,30.74
2.284289,1.263000,0.045000,-0.943000,77.206000,-96.855000,110.672000,30.84
2.294222,1.280000,0.196000,-0.881000,66.840000,-108.412000,95.802000,30.79
2.304328,1.345000,0.345000,-0.812000,59.237000,-114.687000,74.702000,30.79
2.314238,1.472000,0.479000,-0.772000,56.855000,-121.389000,54.046000,30.84
2.324286,1.685000,0.425000,-0.792000,56.580000,-127.466000,38.397000,30.84
2.334213,1.951000,0.360000,-0.769000,54.641000,-138.519000,31.527000,30.88
2.344126,2.081000,0.278000,-0.621000,42.550000,-149.435000,29.771000,30.79
2.354020,2.022000,0.262000,-0.289000,23.527000,-156.321000,28.031000,30.79
2.363977,1.991000,0.367000,0.263000,-11.298000,-145.893000,11.466000,30.84
2.373944,2.014000,0.574000,0.652000,-31.435000,-115.954000,-0.641000,30.84
2.383980,2.083000,0.666000,0.875000,-36.519000,-86.092000,-9.160000,30.74
2.393848,2.277000,0.675000,1.101000,-32.504000,-47.282000,-12.244000,30.79
2.403935,2.344000,0.843000,1.522000,-22.275000,2.870000,-8.779000,30.88
2.413915,2.466000,0.792000,2.012000,-31.740000,71.405000,-13.664000,30.74
2.423953,2.612000,0.906000,2.232000,-47.573000,139.832000,-26.992000,30.84
2.434000,0.914000,0.473000,0.583000,6.718000,201.435000,-19.863000,30.93
2.444005,1.936000,-0.307000,-2.526000,-12.015000,148.611000,-25.618000,30.79
2.454007,0.996000,-0.398000,-2.907000,-6.977000,78.321000,-47.069000,30.88
2.464018,-0.210000,-0.081000,-0.718000,12.107000,69.450000,-56.412000,30.84
2.474099,0.820000,-0.677000,-0.551000,22.153000,176.473000,-68.168000,30.74
2.484084,2.191000,-1.064000,-1.354000,-21.847000,64.870000,-55.740000,30.84
2.494077,1.382000,-0.167000,-1.153000,-41.771000,55.084000,-45.618000,30.88
2.504022,0.559000,0.032000,-0.963000,-23.893000,42.260000,-37.725000,30.88
2.513988,0.627000,-0.102000,-1.017000,-14.977000,45.511000,-25.511000,30.84
2.523935,0.655000,-0.098000,-0.907000,-14.855000,55.023000,-19.191000,30.74
2.533901,0.797000,-0.315000,-1.007000,-13.374000,56.198000,-9.817000,30.84
2.544158,0.759000,-0.292000,-0.948000,-2.718000,41.756000,-3.038000,30.79
2.554082,0.767000,-0.366000,-0.912000,6.336000,36.260000,4.855000,30.79
2.564151,0.718000,-0.375000,-0.888000,13.679000,33.053000,10.290000,30.88
2.573923,0.725000,-0.414000,-0.861000,22.412000,29.481000,14.962000,30.84
2.583918,0.674000,-0.375000,-0.803000,27.221000,21.328000,16.885000,30.74
2.594074,0.640000,-0.435000,-0.764000,26.061000,14.229000,15.802000,30.79
2.604059,0.614000,-0.505000,-0.715000,19.511000,8.687000,11.679000,30.88
2.614075,0.647000,-0.533000,-0.699000,11.008000,4.260000,6.458000,30.88
2.624083,0.646000,-0.447000,-0.708000,5.679000,-4.840000,3.359000,30.84
2.634102,0.647000,-0.448000,-0.741000,3.542000,-11.221000,1.527000,30.84
2.644141,0.667000,-0.366000,-0.795000,4.824000,-17.542000,2.183000,30.93
2.654225,0.536000,-0.298000,-0.739000,5.023000,-25.679000,0.168000,30.88
2.664242,0.466000,-0.342000,-0.724000,2.519000,-27.130000,-3.466000,30.88
2.674180,0.435000,-0.348000,-0.683000,-2.336000,-28.107000,-7.511000,30.84
2.684102,0.447000,-0.406000,-0.664000,-6.534000,-24.534000,-10.443000,30.84
2.694215,0.497000,-0.361000,-0.676000,-9.802000,-21.160000,-11.725000,30.84
2.704070,0.457000,-0.315000,-0.636000,-11.160000,-12.656000,-13.786000,30.69
2.714140,0.502000,-0.337000,-0.714000,-17.802000,-24.702000,-13.878000,30.88
2.724104,0.411000,-0.417000,-0.666000,-25.664000,-5.466000,-17.817000,30.79
2.734154,0.426000,-0.389000,-0.663000,-28.656000,-6.458000,-20.718000,30.93
2.744170,0.372000,-0.358000,-0.668000,-37.435000,2.947000,-26.046000,30.93
2.754146,0.389000,-0.385000,-0.660000,-49.313000,7.405000,-32.687000,30.79
2.764128,0.464000,-0.369000,-0.729000,-58.702000,13.710000,-38.366000,30.88
2.774158,0.453000,-0.344000,-0.711000,-62.458000,19.603000,-40.809000,30.79
2.784187,0.460000,-0.340000,-0.594000,-69.557000,15.298000,-45.588000,30.84
2.794265,0.681000,-0.386000,-0.992000,-74.305000,29.756000,-45.847000,30.84
2.804193,0.591000,-0.125000,-0.830000,-66.687000,33.221000,-42.779000,30.79
2.814322,0.663000,-0.241000,-0.856000,-52.748000,30.809000,-37.374000,30.79
2.824349,0.617000,-0.112000,-0.916000,-35.313000,28.031000,-31.237000,30.88
2.834349,0.642000,-0.163000,-0.831000,-22.931000,24.901000,-24.626000,30.93
2.844483,0.609000,-0.216000,-0.867000,-17.420000,34.718000,-20.672000,30.84
2.854357,0.597000,-0.199000,-0.853000,-11.863000,40.214000,-18.397000,30.88
2.864538,0.624000,-0.254000,-0.853000,-6.718000,42.977000,-16.565000,30.79
2.874132,0.633000,-0.272000,-0.811000,-7.756000,48.641000,-18.412000,30.79
2.884241,0.556000,-0.166000,-0.753000,-9.939000,54.489000,-15.679000,30.84
2.894099,0.568000,-0.368000,-0.823000,-11.206000,70.198000,-21.298000,30.84
2.904218,0.579000,-0.064000,-0.845000,-4.977000,62.901000,-23.267000,30.79
2.914102,0.647000,-0.234000,-0.791000,-13.084000,71.908000,-24.763000,30.79
2.924238,0.597000,-0.300000,-0.778000,-9.756000,91.069000,-27.069000,30.88
2.934363,0.535000,-0.392000,-0.808000,-17.634000,109.939000,-33.298000,30.84
2.944448,0.552000,-0.301000,-0.854000,-21.084000,123.618000,-34.321000,30.84
2.954424,0.560000,-0.209000,-0.806000,-14.198000,157.359000,-48.015000,30.79
2.964408,0.677000,-0.176000,-0.813000,-5.237000,160.977000,-47.084000,30.79
2.974200,0.730000,-0.121000,-0.860000,14.641000,165.908000,-43.130000,30.88
2.984336,0.710000,-0.249000,-0.871000,27.542000,171.878000,-40.076000,30.84
2.994428,0.742000,-0.225000,-0.859000,30.000000,175.542000,-47.863000,30.93
3.004372,0.764000,-0.316000,-0.844000,12.275000,192.443000,-63.649000,30.88
3.014432,0.893000,-0.327000,-1.023000,-5.069000,209.466000,-80.733000,30.88
3.024472,1.011000,-0.560000,-1.235000,-16.809000,218.458000,-91.435000,30.79
3.034567,1.047000,-0.591000,-1.172000,-23.542000,232.779000,-109.863000,30.88
3.044615,1.528000,-0.575000,-1.461000,-14.122000,226.458000,-126.977000,30.74
3.054573,1.849000,-0.691000,-1.948000,-10.000000,219.740000,-135.374000,30.79
3.064556,1.179000,-0.722000,-2.040000,-4.687000,201.557000,-142.824000,30.88
3.074311,-0.068000,-2.173000,-3.459000,-1.298000,75.603000,-72.458000,30.88
3.084196,0.002000,-2.480000,-2.845000,-73.802000,-36.534000,-34.244000,30.79
3.094670,-0.653000,-1.205000,-2.260000,-81.634000,-42.229000,-43.420000,30.84
3.104651,-1.192000,-0.469000,-1.707000,-49.435000,-82.901000,-51.969000,30.88
3.114596,-0.485000,-0.419000,-1.867000,2.656000,-91.374000,-63.771000,30.88
3.124695,-0.575000,-0.781000,-1.474000,24.855000,-118.916000,-61.802000,30.88
3.134703,-0.482000,-0.955000,-1.195000,26.214000,-136.122000,-58.382000,30.79
3.144439,-0.361000,-0.890000,-0.949000,27.053000,-140.550000,-46.611000,30.93
3.154551,-0.310000,-0.753000,-0.823000,32.229000,-123.237000,-25.191000,30.88
3.164295,-0.133000,-0.726000,-0.860000,42.809000,-113.328000,2.046000,30.88
3.174251,0.020000,-0.836000,-0.961000,47.908000,-95.298000,24.244000,30.88
3.184069,0.116000,-0.757000,-0.996000,41.878000,-89.832000,46.885000,30.88
3.194429,0.231000,-0.687000,-1.013000,39.298000,-99.099000,67.344000,30.84
3.204000,0.375000,-0.577000,-1.059000,41.267000,-106.550000,85.374000,30.84
3.214447,0.507000,-0.576000,-1.163000,40.489000,-108.122000,101.298000,30.79
3.224098,0.630000,-0.501000,-1.193000,36.366000,-117.725000,113.954000,30.79
3.234180,0.780000,-0.473000,-1.355000,21.557000,-112.672000,123.969000,30.79
3.244351,0.784000,-0.366000,-1.146000,21.618000,-138.992000,130.366000,30.84
3.253969,0.750000,-0.295000,-1.010000,20.962000,-157.191000,134.366000,30.84
3.263971,0.847000,-0.221000,-1.196000,3.756000,-134.168000,131.969000,30.79
3.273917,0.860000,-0.141000,-1.079000,5.618000,-149.817000,127.191000,30.88
3.284062,0.899000,-0.137000,-1.050000,5.389000,-152.794000,117.160000,30.79
3.294269,0.865000,-0.163000,-0.968000,3.878000,-156.168000,105.878000,30.84
3.303932,0.870000,-0.232000,-0.908000,2.962000,-151.282000,93.985000,30.84
3.314138,0.873000,-0.178000,-0.762000,14.321000,-148.366000,84.656000,30.84
3.324116,0.956000,-0.314000,-0.749000,17.206000,-132.947000,76.763000,30.79
3.334242,0.949000,-0.410000,-0.751000,25.527000,-123.649000,68.351000,30.79
3.344402,1.048000,-0.504000,-0.717000,28.458000,-100.412000,62.702000,30.84
3.354493,1.211000,-0.608000,-0.801000,36.565000,-88.687000,63.557000,30.84
3.364717,1.445000,-0.641000,-0.929000,48.656000,-79.206000,72.473000,30.84
3.374683,1.537000,-0.629000,-0.901000,55.908000,-82.382000,82.977000,30.79
3.384789,1.511000,-0.568000,-0.801000,60.840000,-82.000000,87.939000,30.88
3.394781,1.537000,-0.466000,-0.780000,68.733000,-77.282000,88.672000,30.84
3.404729,1.666000,-0.254000,-0.855000,86.137000,-79.985000,91.985000,30.84
3.414786,1.735000,-0.102000,-0.858000,106.412000,-88.260000,96.321000,30.93
3.428687,1.780000,0.013000,-0.771000,124.473000,-99.481000,99.389000,30.88
3.434008,1.730000,0.121000,-0.603000,128.351000,-112.107000,96.031000,30.88
3.444244,1.625000,0.292000,-0.401000,119.634000,-120.931000,82.855000,30.88
3.454009,1.528000,0.462000,-0.230000,106.794000,-124.412000,60.198000,30.74
3.464107,1.532000,0.581000,-0.139000,95.374000,-119.145000,34.992000,30.84
3.474354,1.629000,0.613000,-0.074000,86.992000,-112.580000,15.145000,30.79
3.484306,1.689000,0.563000,0.052000,75.985000,-103.939000,0.580000,30.79
3.494424,1.714000,0.535000,0.219000,61.634000,-88.702000,-9.954000,30.79
3.504335,1.673000,0.507000,0.357000,43.802000,-67.664000,-17.344000,30.84
3.514325,1.647000,0.512000,0.443000,23.786000,-43.206000,-21.588000,30.84
3.524329,1.644000,0.464000,0.438000,8.870000,-18.473000,-21.802000,30.88
3.534413,1.652000,0.446000,0.390000,-5.573000,5.664000,-19.115000,30.79
3.544315,1.629000,0.387000,0.326000,-20.489000,34.275000,-18.321000,30.88
3.554442,1.610000,0.347000,0.201000,-34.137000,44.595000,-18.107000,30.84
3.564455,1.604000,0.303000,0.069000,-46.748000,61.511000,-19.038000,30.84
3.574625,1.188000,0.844000,-0.251000,-117.725000,129.496000,-65.893000,30.79
3.584590,-0.306000,-0.265000,-1.018000,-78.015000,85.221000,-54.504000,30.79
3.594686,0.562000,-0.719000,-1.796000,-91.130000,65.023000,-49.832000,30.79
3.604579,-0.087000,-0.725000,-1.290000,-92.656000,53.359000,-36.504000,30.84
3.614450,0.272000,-0.052000,-0.565000,-106.351000,81.893000,-51.740000,30.84
3.624497,0.326000,0.532000,-0.610000,-43.863000,147.160000,-79.099000,30.84
3.634587,1.263000,0.434000,-1.614000,1.954000,155.878000,-77.313000,30.79
3.644518,1.559000,0.426000,-1.881000,18.153000,125.847000,-82.809000,30.79
3.654636,1.739000,-0.506000,-1.791000,-4.718000,82.672000,-102.962000,30.84
3.664507,1.517000,-1.069000,-0.926000,-27.313000,70.534000,-79.695000,30.74
3.674522,0.868000,-0.707000,-0.764000,-50.794000,74.046000,-66.015000,30.93
3.684392,0.694000,0.018000,-1.115000,-51.969000,60.916000,-62.641000,30.79
3.694574,0.772000,-0.132000,-1.033000,-48.168000,36.718000,-56.366000,30.88
3.704454,1.018000,-0.747000,-0.796000,-53.481000,27.908000,-41.511000,30.84
3.714472,0.892000,-0.499000,-0.930000,-55.359000,23.069000,-30.580000,30.84
3.724511,0.677000,-0.240000,-0.969000,-45.221000,10.427000,-24.092000,30.93
3.734417,0.651000,-0.491000,-0.835000,-40.489000,7.695000,-19.679000,30.79
3.744378,0.550000,-0.520000,-0.798000,-40.397000,10.931000,-19.618000,30.88
3.754406,0.445000,-0.301000,-0.838000,-36.626000,14.733000,-20.947000,30.74
3.764468,0.481000,-0.270000,-0.842000,-30.824000,18.870000,-20.183000,30.84
3.774387,0.514000,-0.282000,-0.826000,-27.435000,23.954000,-19.023000,30.84
3.784387,0.579000,-0.282000,-0.871000,-21.511000,25.893000,-17.206000,30.79
3.794369,0.566000,-0.241000,-0.813000,-16.550000,26.229000,-14.427000,30.88
3.804496,0.551000,-0.272000,-0.823000,-13.405000,22.443000,-13.542000,30.84
3.814491,0.559000,-0.355000,-0.794000,-17.649000,24.397000,-15.802000,30.84
3.826906,0.480000,-0.350000,-0.713000,-26.397000,20.626000,-20.962000,30.84
3.835585,0.518000,-0.389000,-0.746000,-34.366000,20.244000,-26.397000,30.79
3.851743,0.534000,-0.354000,-0.757000,-38.962000,17.939000,-30.244000,30.88
3.854468,0.576000,-0.288000,-0.797000,-38.977000,14.443000,-31.832000,30.74
3.864786,0.614000,-0.256000,-0.875000,-36.061000,10.565000,-31.618000,30.84
3.873923,0.576000,-0.281000,-0.801000,-33.527000,9.679000,-31.328000,30.84
3.883968,0.542000,-0.198000,-0.820000,-30.107000,8.672000,-30.473000,30.88
3.894098,0.553000,-0.212000,-0.803000,-28.718000,12.687000,-29.985000,30.88
3.903955,0.567000,-0.193000,-0.799000,-25.802000,13.115000,-28.534000,30.88
3.913955,0.566000,-0.174000,-0.796000,-25.099000,16.840000,-27.481000,30.74
3.923993,0.572000,-0.160000,-0.826000,-20.794000,17.893000,-24.901000,30.84
3.934000,0.576000,-0.208000,-0.812000,-20.641000,23.206000,-23.908000,30.88
3.944049,0.487000,-0.221000,-0.779000,-18.000000,25.939000,-21.527000,30.88
3.953999,0.613000,-0.187000,-0.780000,-14.901000,27.756000,-21.893000,30.79
3.963995,0.599000,-0.181000,-0.781000,-14.336000,31.023000,-21.237000,30.84
3.974058,0.620000,-0.185000,-0.804000,-12.656000,32.137000,-21.832000,30.93
3.984285,0.530000,-0.452000,-0.725000,-12.473000,38.015000,-19.313000,30.79
3.993954,0.709000,-0.114000,-0.838000,-7.939000,44.427000,-19.771000,30.79
4.003982,0.623000,-0.085000,-0.820000,-6.702000,49.481000,-16.611000,30.79
4.014049,0.589000,-0.148000,-0.787000,-4.443000,55.695000,-13.115000,30.84
4.023980,0.624000,-0.082000,-0.802000,-2.473000,64.611000,-8.534000,30.84
4.034004,0.609000,-0.124000,-0.807000,-1.695000,78.244000,-3.954000,30.88
4.044263,0.586000,-0.152000,-0.818000,0.702000,93.573000,-1.344000,30.88
4.054120,0.624000,-0.181000,-0.796000,-1.588000,109.863000,0.550000,30.79
4.064098,0.602000,-0.187000,-0.775000,-6.275000,132.076000,0.519000,30.84
4.074137,0.563000,-0.188000,-0.773000,-8.824000,149.557000,-4.458000,30.74
4.084168,0.549000,-0.210000,-0.775000,-8.382000,167.023000,-13.573000,30.88
4.094325,0.573000,-0.232000,-0.740000,-5.069000,178.443000,-22.901000,30.79
4.104245,0.575000,-0.245000,-0.751000,0.992000,178.687000,-31.206000,30.88
4.114199,0.634000,-0.258000,-0.704000,0.137000,197.130000,-39.481000,30.84
4.124295,0.760000,-0.181000,-0.765000,1.038000,210.519000,-42.351000,30.84
4.134319,0.889000,-0.241000,-0.796000,13.435000,220.947000,-41.313000,30.79
4.144059,0.885000,-0.324000,-0.858000,34.260000,224.107000,-38.137000,30.79
4.154253,1.026000,-0.391000,-0.913000,50.916000,225.389000,-38.015000,30.79
4.164327,1.019000,-0.437000,-0.873000,61.939000,222.824000,-44.137000,30.84
4.174612,1.232000,-0.416000,-0.850000,53.450000,241.023000,-57.710000,30.84
4.184288,1.481000,-0.482000,-1.087000,58.275000,262.809000,-68.260000,30.88
4.194590,1.783000,-0.573000,-1.385000,49.939000,272.260000,-86.031000,30.79
4.204231,1.632000,-0.523000,-1.593000,40.931000,253.389000,-111.252000,30.79
4.214144,1.591000,-0.715000,-1.719000,58.137000,251.115000,-118.763000,30.84
4.224010,1.565000,-0.825000,-2.436000,65.832000,206.321000,-126.656000,30.84
4.233986,-0.516000,-3.408000,-2.988000,24.580000,61.740000,-36.290000,30.79
4.244226,-0.271000,-4.000000,-2.286000,-110.000000,4.366000,38.885000,30.88
4.254233,-0.912000,-1.943000,-2.569000,-182.870000,-55.206000,49.023000,30.84
4.264179,-1.275000,-0.704000,-1.855000,-147.038000,-84.779000,58.107000,30.84
4.274074,-0.795000,-0.183000,-2.324000,-72.763000,-103.649000,39.389000,30.84
4.284143,-0.735000,-0.233000,-1.985000,-11.924000,-138.901000,18.779000,30.88
4.294126,-0.476000,-0.533000,-1.730000,11.573000,-178.962000,-8.718000,30.88
4.303987,-0.206000,-0.606000,-1.511000,17.588000,-213.481000,-32.427000,30.79
4.313915,0.140000,-0.593000,-1.406000,21.450000,-234.885000,-44.153000,30.84
4.323892,0.347000,-0.436000,-1.223000,50.626000,-254.641000,-45.450000,30.93
4.333958,0.465000,-0.430000,-1.014000,77.099000,-257.359000,-40.931000,30.79
4.343969,0.593000,-0.545000,-0.912000,96.107000,-255.740000,-33.618000,30.88
4.354513,0.748000,-0.554000,-0.801000,104.687000,-246.168000,-20.931000,30.79
4.364450,0.883000,-0.568000,-0.795000,105.618000,-232.962000,-3.038000,30.93
4.374309,0.973000,-0.556000,-0.773000,102.870000,-214.397000,18.550000,30.84
4.384452,1.024000,-0.518000,-0.818000,97.603000,-199.466000,43.634000,30.79
4.394511,1.244000,-0.325000,-0.809000,92.000000,-175.237000,68.824000,30.88
4.404478,1.104000,-0.206000,-1.068000,82.947000,-177.511000,81.817000,30.88
4.414457,1.144000,-0.133000,-0.927000,68.840000,-168.489000,96.794000,30.74
4.424513,1.028000,-0.153000,-0.901000,52.458000,-159.084000,100.931000,30.93
4.434521,1.131000,-0.141000,-0.866000,38.137000,-148.137000,102.702000,30.79
4.444519,1.210000,-0.149000,-0.914000,29.756000,-143.267000,100.031000,30.88
4.454569,1.180000,-0.156000,-0.831000,24.550000,-142.183000,95.481000,30.79
4.464580,1.177000,-0.163000,-0.781000,21.099000,-138.931000,89.573000,30.84
4.474543,1.123000,-0.155000,-0.725000,23.038000,-132.656000,84.427000,30.84
4.484584,1.084000,-0.155000,-0.671000,27.252000,-126.244000,80.275000,30.79
4.494521,1.019000,-0.151000,-0.629000,31.847000,-114.931000,75.817000,30.88
4.504439,1.013000,-0.142000,-0.613000,40.641000,-99.817000,72.977000,30.88
4.514464,1.096000,-0.110000,-0.711000,54.962000,-88.824000,73.313000,30.84
4.524673,1.223000,-0.146000,-0.814000,72.931000,-83.618000,77.939000,30.84
4.534443,1.285000,-0.140000,-0.885000,78.275000,-86.519000,82.137000,30.69
4.544630,1.282000,-0.168000,-0.830000,81.160000,-87.573000,85.939000,30.79
4.554440,1.381000,-0.238000,-0.701000,63.206000,-78.351000,83.603000,30.79
4.564446,1.277000,0.016000,-0.731000,47.725000,-93.328000,79.420000,30.84
4.574546,1.438000,0.138000,-0.863000,51.481000,-92.015000,83.481000,30.84
4.584398,1.409000,0.076000,-0.833000,53.573000,-101.527000,91.481000,30.88
4.594359,1.352000,0.021000,-0.684000,44.534000,-105.466000,95.481000,30.88
4.604332,1.294000,0.027000,-0.530000,23.267000,-100.214000,95.237000,30.88
4.614369,1.315000,0.140000,-0.397000,0.458000,-95.771000,92.229000,30.84
4.624405,1.353000,0.251000,-0.300000,-13.832000,-86.244000,90.382000,30.84
4.634372,1.433000,0.300000,-0.243000,-21.969000,-68.992000,88.183000,30.79
4.644387,1.537000,0.331000,-0.157000,-23.817000,-57.267000,84.382000,30.79
4.654312,1.520000,0.447000,-0.024000,-21.389000,-53.450000,77.191000,30.79
4.664323,1.568000,0.522000,0.356000,-37.069000,-18.840000,47.221000,30.84
4.674414,1.786000,0.810000,0.519000,-39.863000,14.901000,17.725000,30.84
4.684290,1.942000,0.778000,0.652000,-41.527000,29.176000,-9.435000,30.79
4.694358,2.122000,0.732000,1.025000,-55.389000,58.534000,-38.550000,30.79
4.704361,2.561000,0.653000,1.516000,-79.786000,103.282000,-57.847000,30.88
4.714284,1.355000,0.572000,1.441000,-78.489000,155.206000,-65.389000,30.84
4.724458,1.561000,-0.458000,-1.710000,-38.641000,194.275000,-34.962000,30.74
4.734347,1.516000,-1.094000,-2.763000,-73.634000,105.130000,-38.458000,30.79
4.744253,0.337000,-0.348000,-1.439000,-61.786000,89.298000,-54.840000,30.79
4.754457,-0.028000,0.272000,-0.330000,-26.702000,111.435000,-68.122000,30.79
4.764298,1.238000,0.263000,-1.255000,-1.282000,144.427000,-69.908000,30.74
4.774379,1.328000,0.382000,-1.665000,-4.198000,52.763000,-55.374000,30.84
4.784312,1.271000,0.053000,-1.612000,6.473000,23.298000,-92.137000,30.69
4.794270,1.019000,-0.743000,-0.717000,-2.580000,85.969000,-66.427000,30.79
4.805773,1.039000,-0.926000,-0.879000,-34.229000,82.107000,-56.198000,30.84
4.814126,0.868000,-0.115000,-1.144000,-38.305000,69.160000,-49.863000,30.84
4.824126,0.864000,-0.017000,-1.174000,-41.908000,32.000000,-37.023000,30.84
4.834024,0.723000,-0.428000,-0.893000,-35.527000,46.733000,-24.565000,30.88
4.844090,0.587000,-0.517000,-0.820000,-36.656000,31.038000,-16.031000,30.79
4.854077,0.470000,-0.412000,-0.797000,-34.641000,45.038000,-19.191000,30.93
4.864021,0.550000,-0.363000,-0.838000,-26.977000,39.237000,-17.130000,30.84
4.874059,0.582000,-0.349000,-0.854000,-19.786000,39.969000,-15.130000,30.84
4.884153,0.561000,-0.355000,-0.929000,-19.786000,42.855000,-15.511000,30.79
4.894220,0.618000,-0.289000,-0.891000,-15.908000,41.099000,-14.397000,30.79
4.904096,0.563000,-0.339000,-0.857000,-13.496000,37.160000,-15.573000,30.84
4.914076,0.551000,-0.339000,-0.781000,-14.687000,35.359000,-17.374000,30.93
4.924193,0.603000,-0.334000,-0.798000,-15.145000,33.710000,-18.626000,30.93
4.934144,0.590000,-0.324000,-0.792000,-14.855000,29.618000,-19.191000,30.79
4.944172,0.617000,-0.302000,-0.799000,-14.794000,26.534000,-19.374000,30.69
4.954118,0.626000,-0.252000,-0.824000,-12.672000,21.649000,-18.626000,30.84
4.964141,0.582000,-0.278000,-0.783000,-11.985000,18.443000,-18.458000,30.74
4.974181,0.584000,-0.280000,-0.790000,-12.748000,17.542000,-18.702000,30.74
4.984166,0.575000,-0.253000,-0.779000,-13.038000,15.573000,-19.313000,30.88
4.994299,0.583000,-0.262000,-0.795000,-13.206000,14.641000,-19.115000,30.79
5.004205,0.576000,-0.231000,-0.786000,-14.153000,15.756000,-18.779000,30.84
5.014320,0.576000,-0.252000,-0.783000,-16.473000,14.809000,-19.481000,30.84
5.024362,0.609000,-0.263000,-0.778000,-19.221000,12.489000,-20.916000,30.79
5.034296,0.568000,-0.270000,-0.743000,-20.031000,12.336000,-23.023000,30.88
5.044364,0.595000,-0.278000,-0.784000,-22.122000,16.061000,-24.947000,30.79
5.054349,0.647000,-0.283000,-0.768000,-25.496000,17.664000,-26.595000,30.84
5.064526,0.568000,-0.232000,-0.775000,-23.115000,21.206000,-26.977000,30.74
5.074381,0.605000,-0.161000,-0.760000,-21.206000,16.382000,-26.046000,30.88
5.084455,0.587000,-0.155000,-0.782000,-21.756000,23.710000,-26.382000,30.79
5.094127,0.642000,-0.323000,-0.791000,-20.015000,32.198000,-30.260000,30.74
5.104352,0.611000,-0.188000,-0.799000,-20.885000,41.389000,-29.435000,30.84
5.114287,0.674000,-0.204000,-0.772000,-19.282000,42.290000,-26.870000,30.84
5.124319,0.635000,-0.165000,-0.791000,-18.977000,51.160000,-23.710000,30.69
5.134392,0.604000,-0.188000,-0.774000,-17.435000,61.969000,-21.664000,30.88
5.144313,0.596000,-0.166000,-0.794000,-15.237000,70.748000,-20.718000,30.84
5.154460,0.612000,-0.167000,-0.790000,-16.092000,83.939000,-19.466000,30.84
5.164352,0.604000,-0.160000,-0.796000,-15.969000,98.244000,-17.282000,30.84
5.174395,0.610000,-0.157000,-0.782000,-18.412000,114.000000,-15.969000,30.88
5.184237,0.586000,-0.137000,-0.790000,-19.115000,134.748000,-16.718000,30.88
5.194318,0.537000,-0.144000,-0.785000,-18.046000,153.924000,-21.023000,30.74
5.204266,0.590000,-0.156000,-0.767000,-15.817000,171.298000,-24.611000,30.84
5.214139,0.595000,-0.155000,-0.757000,-8.092000,178.931000,-28.702000,30.79
5.224088,0.592000,-0.131000,-0.726000,-8.031000,207.817000,-35.832000,30.79
5.234288,0.739000,-0.219000,-0.697000,-7.481000,210.992000,-44.489000,30.79
5.244246,0.546000,-0.234000,-0.782000,-17.771000,241.756000,-56.824000,30.84
5.254216,0.672000,-0.287000,-0.731000,-29.023000,265.252000,-74.916000,30.88
5.264142,0.856000,-0.405000,-0.750000,-38.366000,277.664000,-91.542000,30.88
5.274329,1.055000,-0.389000,-0.865000,-38.305000,302.443000,-105.756000,30.79
5.284331,1.198000,-0.404000,-0.968000,-6.855000,316.443000,-113.282000,30.88
5.294362,1.464000,-0.567000,-1.267000,28.183000,342.000000,-109.863000,30.74
5.304371,1.987000,-0.511000,-1.368000,56.183000,364.443000,-104.321000,30.79
5.314289,2.504000,-0.522000,-1.859000,52.000000,328.733000,-96.794000,30.79
5.324338,2.100000,-0.410000,-1.564000,27.740000,345.695000,-123.038000,30.79
5.334507,2.174000,-0.523000,-1.818000,-2.198000,328.351000,-146.336000,30.88
5.344456,1.273000,-0.576000,-1.834000,-31.053000,274.015000,-142.382000,30.84
5.354377,0.299000,-1.416000,-2.682000,-46.214000,174.000000,-86.153000,30.88
5.364345,0.657000,-4.000000,-3.460000,-61.847000,58.840000,91.939000,30.88
5.374495,0.445000,-3.011000,-3.289000,-196.534000,-67.878000,129.481000,30.79
5.384545,-1.385000,-1.602000,-1.557000,-220.107000,-96.504000,148.550000,30.79
5.394456,-0.734000,-0.509000,-1.938000,-166.351000,-106.595000,146.855000,30.84
5.407706,-0.286000,0.065000,-2.224000,-83.389000,-136.122000,136.046000,30.88
5.414403,-0.174000,-0.309000,-1.986000,-25.695000,-169.603000,112.962000,30.88
5.424422,-0.007000,-0.513000,-1.774000,-24.534000,-229.160000,73.389000,30.88
5.434197,0.277000,-0.515000,-1.523000,-49.863000,-267.130000,25.664000,30.84
5.444385,0.428000,-0.118000,-1.448000,-45.588000,-302.885000,-23.679000,30.74
5.454319,0.775000,0.132000,-1.468000,12.244000,-328.824000,-53.954000,30.88
5.463971,0.902000,0.032000,-1.260000,50.702000,-351.786000,-69.160000,30.88
5.473953,0.944000,-0.229000,-1.037000,90.153000,-352.840000,-77.725000,30.88
5.483933,1.051000,-0.477000,-0.824000,101.466000,-352.244000,-76.779000,30.88
5.494166,1.473000,-0.474000,-0.387000,97.115000,-317.817000,-61.359000,30.84
5.504055,1.037000,-0.807000,-0.571000,89.649000,-310.275000,-36.275000,30.79
5.514034,1.298000,-0.616000,-0.539000,90.275000,-283.160000,-2.809000,30.88
5.524107,1.119000,-0.511000,-0.471000,92.321000,-252.840000,26.947000,30.79
5.534088,1.027000,-0.500000,-0.576000,93.023000,-227.481000,52.214000,30.84
5.544134,0.960000,-0.474000,-0.666000,91.679000,-201.527000,71.908000,30.84
5.554048,1.082000,-0.410000,-0.707000,87.618000,-175.847000,89.405000,30.79
5.563977,0.977000,-0.358000,-0.772000,80.901000,-162.244000,101.221000,30.88
5.573943,0.981000,-0.288000,-0.812000,72.855000,-146.626000,104.702000,30.88
5.583912,1.057000,-0.153000,-0.869000,70.443000,-141.771000,103.878000,30.84
5.593930,1.081000,-0.123000,-0.901000,73.481000,-133.420000,99.511000,30.84
5.603981,1.120000,-0.154000,-0.916000,79.053000,-126.626000,95.084000,30.79
5.613929,1.149000,-0.188000,-0.912000,84.962000,-116.779000,91.527000,30.79
5.623960,1.189000,-0.194000,-0.899000,96.916000,-105.725000,91.221000,30.79
5.633911,1.398000,-0.206000,-1.015000,105.008000,-114.916000,92.275000,30.84
5.644043,1.522000,-0.120000,-1.035000,119.863000,-123.160000,94.962000,30.93
5.653970,1.668000,-0.126000,-1.129000,130.366000,-137.618000,98.366000,30.79
5.663910,1.775000,-0.046000,-1.103000,129.298000,-152.092000,100.000000,30.79
5.673965,1.775000,-0.138000,-0.870000,115.573000,-160.382000,98.321000,30.79
5.683969,1.695000,0.225000,-0.743000,95.511000,-174.870000,89.130000,30.84
5.693980,1.742000,0.245000,-0.603000,91.511000,-166.885000,84.779000,30.84
5.703982,1.682000,0.319000,-0.330000,77.069000,-163.191000,74.397000,30.88
5.713957,1.778000,0.322000,-0.107000,60.626000,-145.817000,69.084000,30.79
5.723970,1.804000,0.287000,0.058000,43.863000,-125.878000,67.237000,30.79
5.733967,1.940000,0.342000,0.184000,28.046000,-96.290000,66.763000,30.84
5.744012,2.003000,0.390000,0.359000,12.779000,-70.687000,69.252000,30.74
5.754070,2.037000,0.442000,0.571000,2.229000,-33.298000,71.924000,30.88
5.764003,2.089000,0.475000,0.656000,-6.107000,-17.634000,73.237000,30.79
5.774065,2.074000,0.439000,0.689000,-16.824000,10.656000,70.290000,30.88
5.784060,2.068000,0.418000,0.677000,-28.901000,36.443000,63.832000,30.84
5.794173,1.209000,-0.964000,1.244000,-77.008000,119.634000,65.893000,30.93
5.804049,1.701000,-0.031000,1.582000,-183.573000,148.641000,4.626000,30.88
5.814173,1.220000,0.913000,0.751000,-189.374000,126.290000,-8.198000,30.79
5.824203,1.608000,0.157000,-1.640000,-131.359000,181.221000,25.160000,30.79
5.834200,0.867000,0.357000,-2.488000,-118.580000,125.481000,19.649000,30.84
5.844309,-0.804000,1.594000,-1.680000,-61.053000,125.176000,-32.076000,30.93
5.854289,-0.537000,2.262000,-1.115000,-10.565000,160.748000,-105.847000,30.79
5.864303,1.744000,0.990000,-2.311000,36.824000,169.847000,-133.420000,30.88
5.874332,2.033000,-0.160000,-1.770000,61.557000,156.504000,-108.275000,30.79
5.884351,2.230000,-1.284000,-1.304000,-37.573000,95.420000,-92.351000,30.84
5.894307,1.724000,-1.251000,-1.335000,-34.733000,32.748000,-62.275000,30.84
5.904171,1.031000,-0.063000,-1.375000,-32.611000,95.954000,-45.695000,30.79
5.914321,0.798000,0.056000,-1.105000,-10.641000,111.221000,-33.985000,30.98
5.924318,1.013000,-0.952000,-0.767000,-22.931000,52.305000,-27.420000,30.79
5.934323,0.750000,-0.881000,-0.681000,-26.672000,52.840000,-24.947000,30.84
5.944244,0.542000,-0.420000,-0.858000,-38.198000,37.618000,-28.366000,30.84
5.954183,0.583000,-0.621000,-0.750000,-50.901000,30.153000,-33.786000,30.88
5.964229,0.570000,-0.535000,-0.750000,-67.588000,26.382000,-35.740000,30.79
5.974292,0.536000,-0.384000,-1.097000,-64.840000,3.817000,-47.282000,30.79
5.984394,0.600000,-0.312000,-0.893000,-73.786000,21.237000,-46.504000,30.84
5.994393,0.552000,-0.163000,-0.919000,-66.565000,22.687000,-42.198000,30.84
6.004415,0.594000,-0.132000,-0.925000,-61.969000,19.130000,-38.626000,30.88
6.014356,0.500000,-0.196000,-0.862000,-59.405000,27.603000,-39.115000,30.79
6.024342,0.533000,-0.324000,-0.772000,-62.901000,23.267000,-41.481000,30.79
6.034285,0.569000,-0.362000,-0.818000,-59.603000,14.015000,-43.588000,30.84
6.044186,0.679000,-0.257000,-0.903000,-53.313000,6.855000,-43.008000,30.84
6.054119,0.639000,-0.285000,-0.854000,-46.473000,4.504000,-41.206000,30.79
6.064101,0.596000,-0.235000,-0.822000,-40.779000,1.756000,-40.092000,30.79
6.074095,0.574000,-0.193000,-0.801000,-35.908000,-1.664000,-38.336000,30.88
6.084140,0.581000,-0.188000,-0.823000,-31.618000,-1.328000,-35.618000,30.84
6.094135,0.585000,-0.150000,-0.841000,-26.824000,0.290000,-32.107000,30.93
6.104184,0.555000,-0.127000,-0.826000,-22.244000,2.580000,-28.763000,30.79
6.114140,0.555000,-0.136000,-0.835000,-19.969000,4.626000,-26.779000,30.79
6.124096,0.551000,-0.153000,-0.829000,-18.290000,7.252000,-25.084000,30.79
6.134155,0.547000,-0.131000,-0.834000,-15.908000,10.168000,-22.962000,30.93
6.152638,0.558000,-0.124000,-0.841000,-14.641000,13.649000,-20.748000,30.84
6.155083,0.572000,-0.140000,-0.833000,-12.901000,17.191000,-19.359000,30.88
6.167150,0.628000,-0.118000,-0.827000,-10.489000,21.435000,-17.389000,30.79
6.176702,0.615000,-0.102000,-0.823000,-7.405000,23.237000,-15.817000,30.88
6.184687,0.519000,-0.044000,-0.897000,-3.374000,25.878000,-18.855000,30.84
6.193945,0.582000,-0.159000,-0.782000,-7.435000,31.939000,-16.122000,30.84
6.203932,0.555000,-0.176000,-0.783000,-4.458000,36.611000,-15.145000,30.79
6.213915,0.572000,-0.126000,-0.809000,-3.435000,37.969000,-14.473000,30.88
6.223968,0.600000,-0.107000,-0.821000,-5.053000,49.374000,-14.351000,30.88
6.233931,0.587000,-0.156000,-0.824000,-5.817000,54.901000,-12.931000,30.74
6.244077,0.595000,-0.116000,-0.859000,-9.985000,68.641000,-13.115000,30.84
6.254027,0.617000,-0.208000,-0.881000,-8.504000,85.267000,-13.130000,30.88
6.264037,0.635000,-0.162000,-0.818000,-9.771000,90.443000,-10.931000,30.79
6.274006,0.551000,-0.141000,-0.801000,-6.687000,115.832000,-12.672000,30.88
6.284097,0.561000,-0.145000,-0.797000,-11.267000,132.641000,-13.313000,30.84
6.294111,0.542000,-0.122000,-0.784000,-13.847000,156.046000,-17.130000,30.74
6.304122,0.489000,-0.106000,-0.783000,-12.473000,171.939000,-26.168000,30.88
6.314166,0.566000,-0.115000,-0.807000,-13.786000,189.481000,-32.962000,30.79
6.324138,0.563000,-0.112000,-0.793000,-12.748000,200.763000,-37.023000,30.88
6.334249,0.623000,-0.089000,-0.771000,-5.053000,219.130000,-41.756000,30.74
6.344147,0.640000,-0.093000,-0.802000,-3.389000,247.191000,-48.031000,30.84
6.354160,0.595000,-0.229000,-0.810000,2.763000,268.626000,-55.511000,30.79
6.364247,0.758000,-0.221000,-0.833000,14.427000,280.519000,-61.893000,30.88
6.374295,1.086000,-0.298000,-0.998000,39.756000,287.069000,-64.733000,30.69
6.384237,1.089000,-0.407000,-1.117000,67.099000,277.389000,-74.137000,30.84
6.394106,1.510000,-0.518000,-1.287000,76.321000,322.260000,-81.191000,30.74
6.404326,1.964000,-0.388000,-1.598000,93.053000,327.267000,-78.107000,30.79
6.414214,2.274000,-0.417000,-1.781000,81.145000,351.160000,-101.420000,30.79
6.424265,1.645000,-0.738000,-1.744000,85.878000,350.412000,-132.290000,30.79
6.434297,1.868000,-0.612000,-2.525000,74.519000,299.771000,-143.969000,30.84
6.444239,0.043000,-1.546000,-2.930000,91.176000,189.252000,-109.374000,30.74
6.454246,-0.506000,-4.000000,-3.747000,40.672000,32.656000,8.397000,30.88
6.464346,0.371000,-3.280000,-3.517000,-98.336000,-72.412000,33.832000,30.79
6.474220,-1.197000,-1.951000,-1.868000,-174.763000,-143.954000,43.939000,30.79
6.484116,-1.004000,-0.887000,-1.756000,-160.153000,-155.771000,35.176000,30.84
6.494134,-0.546000,-0.343000,-1.992000,-88.061000,-187.099000,29.924000,30.84
6.504178,-0.382000,-0.140000,-1.802000,-5.985000,-205.237000,26.550000,30.79
6.514119,-0.217000,-0.515000,-1.493000,44.947000,-228.290000,18.397000,30.88
6.524131,0.117000,-0.666000,-1.214000,56.336000,-253.252000,3.817000,30.88
6.534181,0.420000,-0.636000,-1.115000,52.443000,-270.122000,-7.878000,30.74
6.544270,0.586000,-0.467000,-0.962000,57.206000,-274.656000,-13.908000,30.74
6.554293,0.570000,-0.383000,-0.913000,78.794000,-269.802000,-12.473000,30.79
6.564244,0.801000,-0.374000,-0.782000,105.573000,-253.374000,-6.733000,30.88
6.574315,0.843000,-0.530000,-0.847000,126.290000,-254.092000,9.237000,30.88
6.584091,0.996000,-0.576000,-0.900000,126.519000,-244.290000,31.145000,30.88
6.594247,1.044000,-0.530000,-0.902000,127.832000,-232.031000,52.855000,30.84
6.604370,1.251000,-0.358000,-1.094000,125.023000,-226.763000,67.771000,30.79
6.614319,1.063000,-0.143000,-0.865000,115.863000,-214.214000,78.733000,30.88
6.624153,1.033000,-0.031000,-0.963000,110.641000,-207.145000,80.473000,30.79
6.634078,1.026000,-0.024000,-1.014000,108.977000,-199.191000,87.939000,30.79
6.644273,1.137000,-0.026000,-1.087000,107.450000,-189.282000,90.931000,30.84
6.654228,1.089000,-0.070000,-1.089000,95.298000,-185.130000,92.229000,30.79
6.664351,1.104000,0.010000,-1.046000,85.679000,-180.305000,89.756000,30.79
6.674374,1.134000,0.038000,-1.004000,80.962000,-175.084000,87.038000,30.88
6.684264,1.175000,0.004000,-0.920000,78.015000,-166.031000,84.809000,30.88
6.694606,1.133000,-0.036000,-0.819000,74.931000,-153.710000,83.328000,30.93
6.704376,1.136000,-0.072000,-0.787000,72.000000,-131.618000,84.015000,30.88
6.714318,1.251000,-0.094000,-0.847000,74.794000,-114.382000,90.534000,30.88
6.724460,1.387000,-0.089000,-0.921000,83.634000,-102.458000,101.649000,30.79
6.734343,1.952000,-0.257000,-0.804000,24.351000,-49.450000,85.374000,30.88
6.744356,1.468000,0.056000,-0.594000,27.252000,-80.015000,98.504000,30.84
6.754342,1.936000,0.624000,-0.890000,55.695000,-93.527000,108.672000,30.74
6.764350,1.809000,0.500000,-0.694000,84.947000,-92.260000,122.397000,30.93
6.774397,1.742000,0.373000,-0.607000,90.855000,-93.420000,120.336000,30.88
6.784288,1.707000,0.333000,-0.506000,76.519000,-102.870000,109.756000,30.79
6.794505,1.677000,0.367000,-0.368000,60.748000,-102.687000,98.412000,30.84
6.804288,1.585000,0.409000,-0.259000,46.305000,-96.473000,87.130000,30.84
6.814279,1.549000,0.319000,-0.066000,32.656000,-83.374000,79.573000,30.74
6.824354,1.576000,0.302000,0.123000,14.580000,-67.450000,71.481000,30.88
6.834226,1.552000,0.271000,0.383000,-8.397000,-37.786000,62.336000,30.79
6.844378,1.567000,0.306000,0.631000,-28.718000,-8.947000,50.015000,30.74
6.854299,1.600000,0.347000,0.736000,-43.771000,31.023000,33.542000,30.84
6.864406,1.815000,0.358000,0.847000,-63.756000,65.160000,17.252000,30.84
6.874382,2.119000,0.335000,0.931000,-93.527000,97.756000,0.855000,30.79
6.884442,2.516000,0.468000,1.147000,-127.023000,127.069000,-10.748000,30.79
6.894408,2.219000,0.962000,1.506000,-135.618000,163.908000,-14.626000,30.74
6.904522,1.398000,0.007000,-0.893000,-87.282000,225.527000,-6.992000,30.74
6.914350,1.157000,0.161000,-3.287000,-117.634000,129.802000,-48.321000,30.84
6.924410,0.197000,0.958000,-2.356000,-70.840000,120.672000,-79.878000,30.88
6.934200,0.260000,1.279000,-0.984000,-21.008000,127.237000,-116.305000,30.88
6.944646,1.658000,0.386000,-1.500000,23.313000,142.076000,-113.542000,30.84
6.954067,2.036000,-1.085000,-1.615000,-16.718000,78.351000,-87.008000,30.84
6.964091,3.252000,-2.042000,-4.000000,-176.153000,7.649000,105.832000,30.84
6.974127,0.990000,-0.484000,-1.202000,-50.992000,5.786000,-58.901000,30.79
6.984084,0.896000,0.028000,-1.119000,-61.466000,49.038000,-60.107000,30.88
6.994097,0.827000,-0.164000,-1.153000,-48.962000,40.611000,-48.061000,30.84
7.004136,0.815000,-0.714000,-0.760000,-50.885000,31.420000,-33.893000,30.84
7.014095,0.659000,-0.371000,-0.929000,-46.473000,34.260000,-29.221000,30.74
7.024115,0.577000,-0.375000,-0.913000,-38.885000,25.450000,-24.458000,30.79
7.034144,0.417000,-0.428000,-0.750000,-37.573000,23.740000,-25.863000,30.79
7.044247,0.543000,-0.519000,-0.797000,-40.092000,9.435000,-29.878000,30.84
7.054153,0.580000,-0.378000,-0.829000,-46.092000,17.282000,-32.794000,30.84
7.064313,0.552000,-0.184000,-0.852000,-42.656000,8.244000,-30.718000,30.74
7.074224,0.550000,-0.275000,-0.832000,-42.015000,3.740000,-29.069000,30.79
7.084277,0.510000,-0.309000,-0.806000,-43.527000,6.351000,-29.863000,30.79
7.094253,0.498000,-0.262000,-0.810000,-45.466000,9.221000,-29.573000,30.84
7.104323,0.630000,-0.242000,-0.911000,-35.313000,10.076000,-27.038000,30.79
7.114412,0.492000,-0.294000,-0.825000,-32.687000,13.038000,-27.450000,30.88
7.124387,0.507000,-0.191000,-0.854000,-26.214000,5.450000,-27.069000,30.88
7.134359,0.513000,-0.209000,-0.830000,-24.565000,11.008000,-27.344000,30.79
7.144482,0.543000,-0.209000,-0.838000,-22.977000,11.863000,-27.023000,30.84
7.154145,0.554000,-0.182000,-0.836000,-19.496000,10.489000,-25.450000,30.79
7.164362,0.565000,-0.171000,-0.831000,-16.137000,9.420000,-23.359000,30.79
7.174369,0.560000,-0.158000,-0.846000,-13.832000,10.427000,-21.481000,30.79
7.184287,0.541000,-0.190000,-0.834000,-13.237000,12.763000,-20.718000,30.88
7.194350,0.550000,-0.197000,-0.829000,-13.817000,15.145000,-21.298000,30.84
7.204350,0.563000,-0.182000,-0.822000,-13.847000,15.527000,-21.084000,30.88
7.214398,0.562000,-0.149000,-0.840000,-12.763000,16.840000,-19.740000,30.79
7.224450,0.562000,-0.140000,-0.825000,-11.603000,17.588000,-18.000000,30.88
7.234294,0.573000,-0.163000,-0.836000,-11.130000,18.977000,-17.618000,30.84
7.244454,0.563000,-0.153000,-0.823000,-11.328000,20.855000,-17.313000,30.84
7.254329,0.611000,-0.154000,-0.821000,-10.458000,22.947000,-17.176000,30.79
7.264340,0.564000,-0.087000,-0.885000,-8.443000,23.206000,-18.626000,30.79
7.274528,0.598000,-0.188000,-0.824000,-11.954000,27.145000,-18.580000,30.88
7.284422,0.527000,-0.160000,-0.802000,-9.099000,32.855000,-18.351000,30.84
7.294499,0.578000,-0.121000,-0.814000,-8.473000,37.282000,-17.802000,30.84
7.304452,0.577000,-0.149000,-0.832000,-8.122000,42.382000,-16.305000,30.79
7.314403,0.539000,-0.121000,-0.775000,-9.053000,50.336000,-12.473000,30.79
7.324493,0.588000,-0.117000,-0.819000,-5.634000,64.748000,-14.885000,30.79
7.334258,0.572000,-0.120000,-0.849000,-2.000000,69.237000,-11.588000,30.93
7.344190,0.573000,-0.154000,-0.818000,-4.443000,86.504000,-9.878000,30.84
7.354030,0.579000,-0.180000,-0.817000,-8.855000,105.817000,-9.450000,30.79
7.363980,0.576000,-0.186000,-0.818000,-12.824000,125.313000,-9.206000,30.79
7.373942,0.573000,-0.122000,-0.817000,-14.122000,142.336000,-10.168000,30.79
7.383931,0.535000,-0.134000,-0.785000,-16.214000,161.710000,-16.015000,30.84
7.394017,0.507000,-0.136000,-0.773000,-19.084000,183.038000,-26.321000,30.84
7.403920,0.568000,-0.102000,-0.771000,-19.618000,197.023000,-32.397000,30.88
7.413923,0.631000,-0.074000,-0.760000,-15.573000,201.115000,-35.527000,30.88
7.423934,0.588000,-0.031000,-0.774000,-11.389000,216.061000,-38.427000,30.88
7.433952,0.652000,-0.100000,-0.789000,-11.618000,233.542000,-47.618000,30.84
7.444149,0.658000,-0.177000,-0.727000,-28.855000,253.160000,-62.305000,30.84
7.454069,0.717000,-0.188000,-0.682000,-36.595000,265.557000,-77.588000,30.88
7.464002,0.874000,-0.186000,-0.640000,-48.718000,286.931000,-94.198000,30.79
7.474010,1.163000,-0.289000,-0.756000,-49.817000,300.687000,-110.107000,30.84
7.484081,1.161000,-0.393000,-0.807000,-48.260000,321.130000,-128.137000,30.74
7.494086,1.436000,-0.387000,-0.991000,-54.611000,354.229000,-135.481000,30.84
7.504077,1.768000,-0.402000,-1.133000,-60.473000,403.786000,-142.595000,30.88
7.514083,2.313000,-0.573000,-1.699000,-32.107000,402.366000,-145.878000,30.88
7.524168,2.334000,-0.757000,-1.557000,29.313000,308.000000,-132.779000,30.74
7.534226,2.217000,-0.596000,-1.336000,-2.809000,305.130000,-148.733000,30.84
7.544152,1.650000,-0.616000,-1.573000,-32.321000,307.344000,-156.885000,30.84
7.554133,1.128000,-0.692000,-1.903000,-63.771000,291.664000,-166.046000,30.88
7.564198,1.015000,-1.315000,-2.620000,-82.397000,184.107000,-108.015000,30.98
7.574174,0.671000,-4.000000,-3.603000,-40.046000,100.992000,82.962000,30.93
7.584363,2.135000,-3.126000,-3.878000,-150.656000,-88.107000,152.137000,30.84
7.594256,-0.988000,-1.844000,-1.640000,-191.328000,-135.969000,186.275000,30.84
7.604315,-0.762000,-0.486000,-1.740000,-118.382000,-142.061000,190.031000,30.79
7.614282,-0.181000,0.118000,-1.918000,-35.053000,-152.412000,177.344000,30.88
7.624249,-0.133000,-0.065000,-1.751000,26.519000,-160.672000,158.458000,30.79
7.634095,0.125000,-0.401000,-1.709000,45.053000,-202.611000,128.947000,30.84
7.644099,0.388000,-0.451000,-1.574000,28.977000,-260.656000,88.901000,30.93
7.653917,0.564000,-0.272000,-1.586000,10.916000,-298.565000,51.863000,30.79
7.663897,0.713000,-0.052000,-1.292000,0.107000,-311.145000,12.076000,30.79
7.673899,0.911000,0.106000,-1.336000,38.977000,-347.389000,-14.489000,30.88
7.683905,1.100000,0.095000,-1.252000,80.748000,-368.427000,-28.580000,30.84
7.694094,1.858000,-0.081000,-0.637000,110.473000,-331.328000,-32.076000,30.84
7.703851,1.229000,-0.222000,-0.404000,112.000000,-350.229000,-30.244000,30.88
7.713903,1.218000,-0.359000,-0.448000,112.748000,-330.992000,-21.298000,30.88
7.723879,1.369000,-0.269000,-0.416000,110.977000,-306.748000,-7.863000,30.88
7.733889,1.171000,-0.305000,-0.472000,112.855000,-284.397000,11.359000,30.84
7.743963,0.904000,-0.328000,-0.536000,112.122000,-258.137000,31.542000,30.84
7.754205,0.943000,-0.380000,-0.659000,116.168000,-232.321000,55.252000,30.79
7.764199,1.288000,-0.436000,-0.777000,107.267000,-210.656000,83.267000,30.88
7.774183,0.926000,-0.474000,-0.742000,99.771000,-194.076000,102.702000,30.88
7.784330,1.033000,-0.379000,-0.864000,85.252000,-170.916000,113.313000,30.93
7.794384,1.113000,-0.239000,-0.990000,70.931000,-181.756000,124.458000,30.74
7.804363,1.202000,-0.194000,-1.030000,73.298000,-186.763000,132.351000,30.88
7.814346,1.262000,-0.126000,-1.087000,75.588000,-174.885000,135.679000,30.88
7.824357,1.370000,-0.117000,-1.146000,76.916000,-173.710000,136.733000,30.88
7.834361,1.474000,-0.047000,-1.196000,78.519000,-180.855000,135.908000,30.84
7.844448,1.560000,0.087000,-1.181000,81.573000,-184.397000,132.519000,30.74
7.854356,1.642000,0.223000,-1.124000,85.298000,-186.473000,126.504000,30.88
7.864416,1.727000,0.325000,-1.023000,89.924000,-188.504000,118.107000,30.79
7.874459,1.799000,0.404000,-0.939000,93.954000,-187.847000,108.107000,30.79
7.884366,1.990000,0.468000,-0.854000,97.893000,-184.031000,98.595000,30.84
7.894488,2.084000,0.504000,-0.695000,95.481000,-182.458000,90.534000,30.74
7.904398,2.131000,0.553000,-0.451000,86.824000,-174.947000,82.031000,30.88
7.914469,2.163000,0.575000,-0.101000,72.779000,-160.382000,74.427000,30.88
7.924416,2.141000,0.640000,0.233000,54.885000,-134.122000,68.061000,30.79
7.934237,2.212000,0.717000,0.453000,38.595000,-103.511000,64.641000,30.84
7.944272,2.247000,0.728000,0.656000,26.229000,-70.000000,63.267000,30.84
7.954307,2.300000,0.726000,0.789000,17.985000,-35.878000,61.710000,30.79
7.964255,2.106000,0.716000,0.963000,-9.115000,48.977000,56.504000,30.88
7.974408,1.753000,0.220000,1.509000,-33.664000,105.405000,44.473000,30.79
7.984269,1.957000,0.756000,1.840000,-104.061000,105.115000,-8.931000,30.84
7.994608,3.004000,1.365000,1.517000,-123.038000,138.046000,-55.924000,30.84
8.004347,0.499000,0.281000,-0.475000,-83.084000,162.840000,-50.702000,30.79
8.014309,1.406000,-0.531000,-2.874000,-77.924000,118.275000,-54.504000,30.79
8.024397,0.088000,-0.792000,-1.937000,-76.412000,81.679000,-53.649000,30.79
8.034271,-0.286000,0.002000,-0.464000,-36.885000,120.229000,-86.580000,30.88
8.044564,0.606000,0.266000,-0.510000,-12.641000,177.359000,-90.046000,30.84
8.054300,1.839000,0.058000,-2.115000,11.511000,165.481000,-79.359000,30.79
8.064373,0.529000,0.135000,-1.413000,16.443000,93.588000,-58.855000,30.79
8.074369,0.869000,0.214000,-1.148000,15.069000,114.214000,-86.595000,30.79
8.084416,1.092000,-1.046000,-1.001000,-12.504000,95.771000,-72.641000,30.79
8.094404,1.012000,-0.773000,-0.896000,-20.321000,76.824000,-58.092000,30.93
8.104399,0.967000,-0.390000,-1.167000,-33.053000,81.389000,-47.191000,30.88
8.114328,0.864000,-0.303000,-1.033000,-35.832000,60.916000,-40.702000,30.88
8.124537,0.839000,-0.536000,-0.889000,-38.931000,46.992000,-28.275000,30.88
8.134259,0.898000,-0.875000,-1.475000,-28.427000,3.802000,-29.817000,30.79
8.144464,0.645000,-0.405000,-0.882000,-27.817000,11.817000,-24.336000,30.84
8.154397,0.550000,-0.401000,-0.864000,-44.656000,44.244000,-24.122000,30.79
8.164402,0.522000,-0.394000,-0.820000,-46.046000,37.221000,-24.733000,30.79
8.174376,0.509000,-0.366000,-0.872000,-46.580000,39.511000,-25.740000,30.79
8.184268,0.517000,-0.242000,-0.896000,-41.832000,35.573000,-25.649000,30.79
8.194246,0.473000,-0.210000,-0.842000,-45.344000,46.000000,-22.061000,30.84
8.204319,0.642000,-0.344000,-1.001000,-34.824000,30.626000,-22.687000,30.79
8.214500,0.562000,-0.267000,-0.832000,-29.756000,30.351000,-20.122000,30.88
8.224384,0.583000,-0.344000,-0.822000,-24.565000,28.397000,-18.229000,30.88
8.234348,0.570000,-0.371000,-0.821000,-22.458000,20.885000,-20.351000,30.79
8.244376,0.586000,-0.374000,-0.793000,-23.573000,19.435000,-22.840000,30.93
8.254397,0.564000,-0.367000,-0.769000,-24.275000,14.656000,-25.298000,30.93
8.264332,0.578000,-0.325000,-0.774000,-25.466000,10.504000,-27.389000,30.74
8.274382,0.562000,-0.276000,-0.764000,-24.534000,7.786000,-27.756000,30.79
8.284541,0.571000,-0.235000,-0.798000,-22.061000,10.458000,-24.763000,30.88
8.294360,0.552000,-0.181000,-0.816000,-18.061000,7.099000,-22.595000,30.84
8.304395,0.556000,-0.225000,-0.823000,-16.229000,10.611000,-21.435000,30.84
8.314358,0.561000,-0.197000,-0.829000,-14.168000,12.977000,-19.847000,30.84
8.324354,0.567000,-0.183000,-0.823000,-11.710000,16.107000,-18.214000,30.69
8.334277,0.478000,-0.250000,-0.802000,-10.336000,20.702000,-15.954000,30.79
8.344389,0.556000,-0.198000,-0.817000,-10.336000,24.489000,-15.985000,30.74
8.354412,0.553000,-0.224000,-0.781000,-12.183000,27.298000,-16.824000,30.84
8.364352,0.582000,-0.243000,-0.801000,-14.214000,27.420000,-18.473000,30.79
8.374328,0.572000,-0.215000,-0.859000,-14.702000,28.672000,-21.405000,30.79
8.384344,0.544000,-0.257000,-0.762000,-16.122000,36.443000,-21.023000,30.79
8.394351,0.628000,-0.187000,-0.830000,-14.397000,28.794000,-20.519000,30.84
8.404385,0.575000,-0.198000,-0.778000,-14.565000,31.786000,-19.893000,30.79
8.414251,0.568000,-0.248000,-0.675000,-6.458000,31.206000,-19.298000,30.79
8.424453,0.540000,-0.263000,-0.755000,-12.718000,33.237000,-18.733000,30.69
8.434334,0.573000,-0.230000,-0.770000,-12.962000,39.527000,-21.221000,30.79
8.444342,0.651000,-0.180000,-0.774000,-12.321000,49.420000,-20.412000,30.93
8.454407,0.574000,-0.247000,-0.797000,-15.405000,55.802000,-21.160000,30.84
8.464303,0.562000,-0.240000,-0.830000,-16.504000,68.336000,-21.969000,30.74
8.474507,0.601000,-0.239000,-0.826000,-17.893000,81.176000,-21.359000,30.69
8.484014,0.583000,-0.266000,-0.801000,-19.252000,100.260000,-22.489000,30.79
8.494192,0.607000,-0.151000,-0.796000,-18.901000,123.191000,-21.206000,30.84
8.504079,0.593000,-0.150000,-0.785000,-17.069000,141.389000,-21.115000,30.84
8.514016,0.573000,-0.209000,-0.708000,-12.336000,160.168000,-26.565000,30.84
8.524186,0.554000,-0.094000,-0.799000,-8.031000,196.794000,-34.229000,30.79
8.534125,0.600000,-0.106000,-0.781000,-6.351000,193.023000,-35.863000,30.88
8.544140,0.550000,-0.084000,-0.733000,-4.244000,219.389000,-40.229000,30.84
8.554262,0.584000,-0.095000,-0.662000,-3.771000,242.076000,-45.863000,30.74
8.564363,0.610000,-0.104000,-0.741000,-7.817000,258.641000,-51.634000,30.74
8.574304,0.688000,-0.306000,-0.766000,-25.756000,278.092000,-68.870000,30.88
8.584311,0.890000,-0.344000,-0.730000,-39.115000,297.023000,-87.603000,30.88
8.594358,1.032000,-0.342000,-0.750000,-34.351000,312.534000,-106.519000,30.74
8.604404,1.242000,-0.328000,-0.823000,-26.672000,349.160000,-115.969000,30.84
8.614353,1.324000,-0.294000,-1.115000,-20.718000,397.832000,-116.550000,30.84
8.624531,1.832000,-0.222000,-1.310000,-22.412000,441.695000,-118.992000,30.79
8.634503,2.290000,-0.238000,-1.204000,-11.176000,431.954000,-119.496000,30.79
8.644577,2.487000,-0.659000,-1.655000,45.405000,351.573000,-99.435000,30.84
8.654422,2.286000,-0.611000,-1.770000,64.595000,348.198000,-105.282000,30.84
8.664569,1.106000,-0.509000,-1.544000,19.374000,321.435000,-134.260000,30.84
8.674584,0.940000,-0.749000,-1.738000,-31.756000,329.985000,-152.611000,30.79
8.684522,1.226000,-0.751000,-1.867000,-77.176000,247.557000,-129.863000,30.79
8.694573,-0.796000,-2.050000,-3.596000,-5.282000,117.725000,-11.267000,30.93
8.709994,4.000000,-2.826000,-4.000000,-104.626000,-70.870000,42.229000,30.84
8.717735,0.420000,-3.823000,-0.619000,-111.237000,-241.710000,103.053000,30.74
8.724331,-0.646000,-0.738000,-1.203000,-153.511000,-221.832000,106.718000,30.88
8.734685,-0.249000,-0.440000,-1.042000,-41.847000,-282.000000,118.092000,30.79
8.743939,-0.524000,-0.348000,-0.866000,-20.809000,-129.542000,115.725000,30.74
8.753926,-0.028000,-0.677000,-1.104000,-19.817000,-156.473000,104.534000,30.84
8.763946,0.413000,-0.589000,-1.333000,-43.908000,-206.718000,76.473000,30.84
8.773933,0.521000,-0.333000,-1.438000,-58.519000,-239.985000,48.702000,30.79
8.783941,0.662000,-0.046000,-1.400000,-34.321000,-272.687000,25.954000,30.79
8.794058,0.745000,-0.043000,-1.183000,7.710000,-297.802000,10.718000,30.88
8.803997,0.806000,-0.181000,-0.965000,46.824000,-319.573000,0.992000,30.84
8.813947,0.892000,-0.458000,-0.762000,66.107000,-324.290000,0.687000,30.74
8.824035,1.074000,-0.618000,-0.720000,73.023000,-319.496000,12.702000,30.79
8.834096,0.977000,-0.604000,-0.606000,78.000000,-312.641000,34.443000,30.88
8.844131,1.078000,-0.692000,-0.719000,77.130000,-299.908000,49.863000,30.79
8.854093,1.271000,-0.615000,-0.958000,67.756000,-283.344000,71.115000,30.84
8.864050,0.971000,-0.413000,-1.080000,83.511000,-192.092000,83.573000,30.74
8.874188,1.373000,-0.271000,-0.542000,86.275000,-271.817000,89.313000,30.88
8.884191,1.282000,-0.289000,-0.658000,71.939000,-281.679000,92.794000,30.79
8.894158,1.063000,-0.207000,-0.804000,56.382000,-263.160000,90.489000,30.88
8.904160,1.478000,-0.128000,-1.007000,50.931000,-252.763000,91.344000,30.84
8.914264,1.438000,-0.003000,-1.184000,48.305000,-258.580000,82.748000,30.84
8.924354,1.472000,0.245000,-1.141000,55.405000,-278.550000,64.992000,30.79
8.934222,1.501000,0.461000,-0.979000,76.687000,-298.626000,39.557000,30.88
8.944091,1.475000,0.479000,-0.968000,89.435000,-285.985000,17.802000,30.88
8.954230,1.598000,0.340000,-0.925000,105.008000,-285.573000,-2.107000,30.84
8.964345,1.611000,0.190000,-0.858000,105.115000,-245.344000,-13.649000,30.93
8.974374,1.697000,0.092000,-0.861000,111.038000,-228.000000,-17.740000,30.74
8.984183,1.743000,-0.013000,-0.749000,120.702000,-229.985000,-15.634000,30.79
8.994441,2.319000,-0.174000,-0.702000,64.977000,-199.481000,-18.382000,30.88
9.004256,2.266000,0.029000,-0.284000,38.565000,-108.901000,0.611000,30.74
9.014111,2.212000,0.367000,-0.610000,64.061000,-133.756000,27.802000,30.65
9.024333,2.293000,0.346000,-0.838000,105.634000,-114.870000,66.794000,30.84
9.034157,2.113000,0.254000,-0.520000,108.153000,-112.855000,95.588000,30.79
9.044082,1.654000,0.115000,0.016000,85.832000,-117.771000,107.420000,30.79
9.054226,1.651000,0.356000,0.353000,34.947000,-100.992000,101.023000,30.84
9.064225,1.724000,0.522000,0.252000,-10.427000,-65.359000,92.977000,30.84
9.073978,1.802000,0.598000,0.103000,-26.473000,-43.756000,85.252000,30.74
9.084028,1.803000,0.674000,0.283000,-28.336000,-22.321000,78.183000,30.88
9.094100,1.071000,0.431000,0.592000,-24.000000,6.229000,75.160000,30.79
9.104001,1.403000,0.587000,1.013000,-55.939000,31.649000,48.397000,30.74
9.114030,2.293000,0.727000,0.960000,-72.168000,84.015000,30.977000,30.74
9.123950,2.917000,0.859000,1.145000,-71.099000,103.389000,31.679000,30.84
9.133944,1.172000,0.749000,0.960000,-38.947000,144.107000,32.397000,30.79
9.143923,1.304000,0.179000,-1.751000,-46.672000,168.107000,1.679000,30.79
9.153908,0.466000,-0.039000,-2.659000,-45.496000,93.344000,-23.954000,30.74
9.163880,-0.330000,0.024000,-1.188000,4.672000,117.420000,-49.771000,30.84
9.173943,0.353000,0.052000,-0.549000,35.832000,174.779000,-63.252000,30.84
9.183935,1.622000,0.112000,-1.621000,44.641000,164.763000,-57.420000,30.79
9.194031,1.449000,-0.152000,-2.685000,60.046000,124.748000,-64.672000,30.79
9.204008,0.864000,-0.136000,-1.425000,30.687000,97.359000,-61.969000,30.74
9.213963,1.091000,-0.944000,-0.942000,25.695000,79.282000,-51.405000,30.93
9.224040,1.003000,-1.054000,-0.973000,-3.786000,84.718000,-35.649000,30.84
9.233978,0.889000,-0.469000,-1.014000,-7.237000,78.336000,-25.206000,30.79
9.244103,0.781000,-0.357000,-1.008000,-8.458000,55.496000,-19.908000,30.79
9.254080,0.751000,-0.652000,-0.847000,-11.038000,47.588000,-14.321000,30.79
9.264057,0.594000,-0.592000,-0.754000,-14.229000,46.855000,-12.336000,30.84
9.274070,0.500000,-0.453000,-0.864000,-23.008000,43.771000,-16.214000,30.84
9.284122,0.637000,-0.451000,-0.890000,-22.748000,35.573000,-15.588000,30.79
9.295159,0.549000,-0.354000,-0.867000,-20.412000,31.237000,-14.550000,30.88
9.305206,0.510000,-0.313000,-0.898000,-18.947000,32.443000,-14.382000,30.79
9.313912,0.526000,-0.278000,-0.876000,-16.061000,34.244000,-13.023000,30.84
9.323930,0.517000,-0.291000,-0.850000,-11.023000,35.145000,-11.084000,30.84
9.333913,0.554000,-0.319000,-0.843000,-7.527000,34.489000,-9.206000,30.88
9.343961,0.531000,-0.328000,-0.819000,-4.183000,32.931000,-8.397000,30.69
9.353980,0.524000,-0.382000,-0.770000,-3.359000,32.641000,-9.176000,30.79
9.363955,0.531000,-0.432000,-0.727000,-6.672000,30.366000,-12.229000,30.84
9.374027,0.531000,-0.457000,-0.722000,-12.351000,27.176000,-16.534000,30.84
9.383994,0.537000,-0.450000,-0.749000,-22.229000,25.313000,-22.046000,30.88
9.394147,0.490000,-0.397000,-0.694000,-28.947000,19.878000,-27.328000,30.79
9.404055,0.534000,-0.360000,-0.780000,-36.992000,19.115000,-32.550000,30.88
9.414055,0.620000,-0.317000,-0.869000,-39.954000,9.511000,-37.389000,30.84
9.424050,0.498000,-0.391000,-0.672000,-49.527000,9.786000,-40.718000,30.84
9.434069,0.531000,-0.376000,-0.696000,-55.481000,11.008000,-43.847000,30.79
9.444077,0.568000,-0.322000,-0.799000,-56.427000,7.588000,-44.779000,30.79
9.454188,0.596000,-0.317000,-0.800000,-51.130000,11.634000,-43.069000,30.88
9.464159,0.669000,-0.076000,-0.958000,-41.817000,9.817000,-35.618000,30.84
9.474190,0.566000,-0.207000,-0.833000,-35.160000,12.031000,-32.626000,30.74
9.484318,0.550000,-0.195000,-0.816000,-29.206000,9.237000,-31.221000,30.79
9.494290,0.545000,-0.196000,-0.830000,-27.084000,15.038000,-29.267000,30.79
9.504272,0.584000,-0.175000,-0.806000,-25.069000,17.466000,-28.015000,30.88
9.514173,0.574000,-0.216000,-0.800000,-23.664000,21.664000,-26.763000,30.84
9.524254,0.586000,-0.220000,-0.796000,-22.992000,22.489000,-26.366000,30.74
9.534290,0.616000,-0.222000,-0.798000,-21.221000,24.260000,-24.794000,30.88
9.544260,0.511000,-0.438000,-0.708000,-19.511000,31.359000,-19.206000,30.79
9.554295,0.614000,-0.196000,-0.788000,-21.664000,39.542000,-25.496000,30.79
9.564206,0.516000,-0.352000,-0.634000,-11.252000,27.573000,-23.115000,30.84
9.574215,0.563000,-0.213000,-0.788000,-14.595000,33.679000,-25.832000,30.84
9.584253,0.537000,-0.277000,-0.774000,-16.214000,45.374000,-26.198000,30.79
9.594161,0.561000,-0.238000,-0.825000,-14.595000,49.038000,-27.542000,30.79
9.604253,0.592000,-0.256000,-0.812000,-18.763000,63.802000,-28.412000,30.79
9.614218,0.599000,-0.223000,-0.851000,-20.305000,79.038000,-27.527000,30.74
9.624216,0.580000,-0.217000,-0.823000,-21.863000,94.031000,-26.870000,30.93
9.634168,0.609000,-0.206000,-0.807000,-24.321000,109.878000,-26.229000,30.88
9.644151,0.613000,-0.143000,-0.788000,-25.282000,130.611000,-25.802000,30.79
9.654201,0.566000,-0.048000,-0.760000,-24.107000,156.275000,-25.496000,30.79
9.664109,0.476000,-0.089000,-0.777000,-16.718000,177.481000,-29.863000,30.84
9.674262,0.587000,-0.056000,-0.824000,-8.840000,201.618000,-33.252000,30.84
9.684289,0.573000,-0.090000,-0.804000,-4.458000,208.840000,-33.542000,30.79
9.694150,0.507000,-0.110000,-0.749000,-10.809000,244.351000,-42.947000,30.79
9.704268,0.625000,-0.201000,-0.818000,-14.840000,272.000000,-54.382000,30.79
9.714174,0.542000,-0.302000,-0.802000,-27.603000,299.710000,-79.557000,30.84
9.724296,0.842000,-0.400000,-0.721000,-41.496000,323.756000,-100.809000,30.84
9.734184,0.996000,-0.302000,-0.862000,-38.947000,327.832000,-111.740000,30.79
9.744262,1.373000,-0.380000,-1.218000,-28.641000,371.130000,-128.031000,30.88
9.754334,1.777000,-0.347000,-1.508000,-23.893000,435.008000,-128.641000,30.69
9.764378,2.430000,-0.553000,-2.153000,1.344000,454.550000,-125.511000,30.84
9.774322,2.482000,-0.715000,-2.084000,44.000000,371.359000,-121.481000,30.74
9.784196,2.520000,-0.824000,-1.962000,30.626000,360.626000,-133.328000,30.88
9.794158,1.493000,-0.734000,-2.132000,3.237000,347.679000,-163.481000,30.88
9.804072,0.852000,-0.917000,-2.529000,-51.740000,308.473000,-162.412000,30.79
9.814005,-1.386000,-1.875000,-3.161000,-60.519000,125.649000,-50.000000,30.84
9.824052,2.047000,-2.472000,-4.000000,-63.481000,98.748000,19.847000,30.84
9.834044,0.856000,-2.082000,-2.997000,-51.618000,-206.809000,54.260000,30.79
9.844122,-1.392000,-1.148000,-1.180000,-124.000000,-123.435000,50.901000,30.88
9.854038,-0.644000,-0.544000,-1.049000,-109.221000,-144.611000,29.924000,30.88
9.864013,-0.316000,-0.484000,-1.675000,-78.214000,-149.084000,26.092000,30.84
9.874139,-0.270000,-0.424000,-1.381000,-27.527000,-169.389000,19.985000,30.84
9.884158,0.175000,-0.585000,-1.524000,-25.130000,-216.901000,9.924000,30.69
9.894285,0.344000,-0.607000,-1.408000,-28.687000,-251.496000,-3.603000,30.88
9.904160,0.478000,-0.518000,-1.252000,-21.282000,-287.618000,-18.748000,30.79
9.914132,0.592000,-0.360000,-1.100000,-0.046000,-303.466000,-24.168000,30.74
9.924135,0.811000,-0.354000,-1.016000,19.878000,-328.351000,-27.695000,30.84
9.934284,0.835000,-0.420000,-0.747000,44.260000,-316.260000,-23.740000,30.88
9.944195,0.868000,-0.568000,-0.665000,64.427000,-310.122000,-16.504000,30.88
9.954292,1.012000,-0.613000,-0.643000,81.298000,-302.336000,-0.275000,30.79
9.964304,1.189000,-0.627000,-0.717000,88.046000,-290.550000,20.153000,30.84
9.974396,0.792000,-0.751000,-0.182000,96.992000,-159.252000,37.176000,30.74
9.984244,1.583000,-0.749000,-0.903000,105.252000,-285.771000,72.809000,30.79
9.994368,1.300000,-0.449000,-0.354000,116.611000,-256.992000,94.534000,30.79
10.004335,1.376000,-0.385000,-0.542000,103.557000,-265.038000,109.802000,30.88
