# Gait Analysis Data - MPU6050 IMU
# Duration: 10 seconds
# Format: timestamp(s),ax(g),ay(g),az(g),gx(deg/s),gy(deg/s),gz(deg/s),temp(C)
# Note: Document sensor placement (ankle/wrist) separately
timestamp,ax,ay,az,gx,gy,gz,temp
0.001257,0.458000,-0.540000,-0.712000,-82.336000,9.267000,-26.107000,29.19
0.001988,0.409000,-0.512000,-0.712000,-90.031000,7.954000,-28.092000,29.19
0.002652,0.362000,-0.499000,-0.709000,-98.824000,-3.344000,-30.244000,29.14
0.003319,0.311000,-0.367000,-0.777000,-121.557000,-3.328000,-33.832000,29.09
0.004115,0.399000,-0.388000,-0.986000,-132.473000,6.458000,-37.771000,29.19
0.004980,0.485000,-0.216000,-1.075000,-132.443000,29.130000,-35.725000,29.09
0.005866,0.481000,-0.156000,-1.275000,-110.748000,39.756000,-32.977000,29.24
0.006479,0.377000,-0.066000,-1.101000,-67.710000,22.855000,-29.588000,29.14
0.007074,0.508000,-0.319000,-1.018000,-56.580000,8.229000,-26.092000,29.09
0.007653,0.494000,-0.263000,-0.955000,-46.305000,1.985000,-26.122000,29.19
0.008238,0.414000,-0.161000,-0.918000,-41.115000,2.931000,-28.076000,29.05
0.008885,0.503000,-0.226000,-0.938000,-46.214000,15.053000,-29.527000,29.14
0.009604,0.464000,-0.290000,-0.900000,-43.908000,7.023000,-31.924000,29.09
0.010297,0.486000,-0.312000,-0.883000,-44.489000,4.427000,-32.748000,29.19
0.010928,0.485000,-0.216000,-0.857000,-46.031000,2.687000,-31.099000,29.14
0.011512,0.455000,-0.127000,-0.895000,-48.244000,15.863000,-26.015000,29.05
0.012252,0.445000,-0.114000,-0.956000,-36.015000,15.313000,-23.725000,29.19
0.012897,0.427000,-0.198000,-0.902000,-32.260000,19.023000,-23.374000,29.09
0.013484,0.438000,-0.165000,-0.920000,-26.061000,18.550000,-22.931000,29.14
0.014081,0.449000,-0.122000,-0.914000,-20.763000,20.580000,-21.863000,29.09
0.014654,0.465000,-0.169000,-0.914000,-8.687000,18.290000,-21.969000,29.19
0.015379,0.442000,-0.078000,-0.891000,-17.802000,30.672000,-19.160000,29.19
0.016058,0.468000,-0.134000,-0.890000,-15.924000,29.817000,-17.069000,29.14
0.016721,0.472000,-0.167000,-0.893000,-16.290000,36.061000,-14.260000,29.24
0.017371,0.449000,-0.140000,-0.877000,-17.450000,39.802000,-13.679000,29.09
0.018097,0.454000,-0.169000,-0.874000,-17.924000,48.107000,-13.573000,29.19
0.018795,0.431000,-0.121000,-0.875000,-18.168000,56.076000,-12.275000,29.05
0.019490,0.439000,-0.127000,-0.871000,-19.481000,65.130000,-10.458000,29.14
0.020208,0.454000,-0.128000,-0.880000,-20.183000,74.733000,-7.985000,29.09
0.021089,0.478000,-0.137000,-0.894000,-20.153000,79.695000,-5.863000,29.09
0.021955,0.475000,-0.162000,-0.842000,-23.023000,102.885000,-5.084000,29.14
0.022720,0.454000,-0.188000,-0.859000,-26.840000,116.565000,-6.412000,29.05
0.023466,0.438000,-0.182000,-0.819000,-30.473000,129.756000,-11.374000,29.19
0.024428,0.473000,-0.125000,-0.750000,-42.168000,148.153000,-19.634000,29.19
0.025176,0.501000,-0.126000,-0.754000,-48.260000,162.122000,-29.908000,29.14
0.025901,0.541000,-0.116000,-0.818000,-46.153000,165.237000,-36.260000,29.09
0.026628,0.579000,-0.123000,-0.788000,-35.191000,165.893000,-42.260000,29.09
0.027352,0.540000,-0.115000,-0.765000,-38.366000,170.275000,-48.534000,29.14
0.028073,0.604000,-0.143000,-0.814000,-46.107000,179.221000,-55.237000,29.14
0.028887,0.494000,-0.184000,-0.842000,-58.550000,201.160000,-64.214000,29.19
0.029649,0.630000,-0.251000,-0.825000,-69.389000,211.710000,-80.000000,29.09
0.030399,0.886000,-0.380000,-1.000000,-54.504000,220.443000,-91.710000,29.14
0.031061,1.075000,-0.463000,-0.938000,-6.168000,174.397000,-47.344000,29.14
0.031716,1.124000,-0.377000,-1.291000,-29.588000,227.878000,-48.611000,29.09
0.032376,1.228000,-0.427000,-1.533000,-26.595000,268.107000,-103.450000,29.19
0.033046,1.672000,-0.605000,-1.448000,-16.656000,309.695000,-144.641000,29.14
0.033708,1.275000,-0.247000,-1.631000,-50.046000,331.786000,-208.015000,29.09
0.034374,1.411000,-0.481000,-1.260000,-189.786000,463.817000,-211.237000,29.09
0.035034,1.883000,-0.493000,-2.174000,-102.321000,250.977000,-207.863000,29.09
0.035631,0.907000,-0.921000,-2.044000,-63.496000,213.053000,-194.290000,29.05
0.036215,-0.740000,-3.027000,-2.150000,19.496000,43.618000,-80.611000,29.14
0.036841,1.650000,-3.431000,-3.075000,-14.870000,9.466000,13.588000,29.09
0.037457,-0.405000,-2.288000,-0.637000,-99.389000,-116.763000,43.328000,29.19
0.038060,-0.875000,-1.155000,-0.710000,-67.069000,-149.298000,67.878000,29.05
0.038692,-0.303000,-0.530000,-1.261000,-15.863000,-162.366000,67.191000,29.14
0.039374,-0.452000,-0.652000,-1.150000,48.962000,-189.542000,53.832000,29.09
0.039913,-0.190000,-0.990000,-0.956000,34.275000,-95.863000,37.939000,29.19
0.040436,-0.062000,-0.834000,-0.818000,33.359000,-135.389000,31.679000,29.14
0.040948,-0.022000,-0.549000,-1.007000,25.740000,-162.427000,21.160000,29.05
0.041448,0.106000,-0.367000,-1.113000,43.435000,-212.198000,14.550000,29.09
0.041945,0.213000,-0.293000,-1.173000,69.817000,-247.588000,7.908000,29.19
0.042463,0.322000,-0.318000,-1.130000,95.740000,-278.153000,1.817000,29.05
0.043002,0.417000,-0.353000,-1.045000,112.885000,-290.351000,-0.504000,29.19
0.043495,0.543000,-0.415000,-0.969000,122.092000,-294.519000,4.626000,29.09
0.043976,0.648000,-0.415000,-0.912000,128.015000,-286.901000,17.573000,29.09
0.044445,0.715000,-0.390000,-0.815000,133.298000,-274.076000,38.809000,29.05
0.044932,0.826000,-0.340000,-0.723000,139.985000,-248.275000,66.168000,29.05
0.045417,0.894000,-0.284000,-0.686000,140.000000,-217.679000,95.313000,29.09
0.045900,0.924000,-0.177000,-0.789000,133.389000,-187.573000,119.023000,29.09
0.046478,0.958000,-0.082000,-0.915000,121.756000,-166.122000,136.672000,29.14
0.046958,0.966000,-0.073000,-1.084000,103.145000,-151.267000,150.046000,29.05
0.047524,1.063000,-0.028000,-1.224000,93.191000,-147.908000,159.115000,29.09
0.048018,1.213000,0.006000,-1.349000,89.359000,-146.962000,162.443000,29.09
0.048501,1.401000,-0.149000,-1.373000,79.099000,-146.015000,164.702000,29.24
0.048989,1.465000,-0.069000,-1.255000,66.962000,-155.252000,165.328000,29.05
0.049946,1.477000,-0.028000,-1.053000,58.672000,-153.924000,163.405000,29.19
0.050443,1.500000,0.092000,-0.895000,48.824000,-132.870000,157.099000,29.09
0.050939,1.429000,0.148000,-0.793000,50.244000,-114.916000,149.206000,29.05
0.051414,1.456000,0.269000,-0.664000,47.099000,-97.634000,135.679000,29.09
0.051882,1.428000,0.326000,-0.818000,53.466000,-64.183000,114.718000,29.09
0.052372,1.425000,0.430000,-0.796000,69.618000,-37.725000,92.641000,29.09
0.052848,1.486000,0.498000,-0.912000,94.031000,-19.389000,73.786000,29.14
0.053326,1.626000,0.574000,-1.151000,119.344000,2.336000,57.206000,29.14
0.053803,1.552000,0.447000,-1.039000,121.176000,37.160000,46.611000,29.09
0.054271,1.750000,0.666000,-0.922000,195.206000,25.023000,19.679000,29.09
0.054743,1.740000,0.806000,-0.965000,148.122000,38.290000,14.366000,29.05
0.055215,1.609000,0.864000,-0.735000,131.756000,-15.557000,2.153000,29.19
0.055688,1.352000,0.956000,-0.558000,92.107000,-86.153000,-15.252000,29.09
0.056171,1.252000,1.142000,-0.403000,113.374000,-116.931000,-46.473000,29.05
0.056644,1.115000,1.144000,-0.316000,112.382000,-103.725000,-79.328000,29.14
0.057171,1.140000,0.962000,-0.326000,116.519000,-59.282000,-105.725000,29.19
0.057661,1.250000,0.788000,-0.360000,125.328000,-43.878000,-120.137000,29.19
0.058131,1.223000,0.582000,-0.420000,108.687000,-46.473000,-117.053000,29.05
0.058748,1.427000,0.363000,-0.433000,37.924000,-89.176000,-93.298000,29.14
0.059337,1.175000,0.301000,-0.585000,76.641000,-54.519000,-93.053000,29.09
0.059807,0.973000,0.183000,-0.504000,41.710000,-52.489000,-75.603000,29.09
0.060337,1.530000,-0.604000,-0.354000,-99.267000,-22.565000,-57.603000,29.05
0.060895,0.348000,1.085000,-0.249000,-171.664000,-87.115000,-67.160000,29.14
0.061377,-0.038000,0.242000,-0.838000,-68.305000,42.947000,-24.092000,29.09
0.061859,0.070000,-0.559000,-0.877000,-61.878000,35.344000,-10.000000,29.09
0.062412,-0.320000,-0.687000,-0.776000,-67.389000,22.580000,-26.229000,29.14
0.062925,-0.198000,-0.352000,-0.521000,-61.771000,76.382000,-60.366000,29.05
0.063415,0.540000,-0.207000,-1.262000,-34.015000,145.282000,-74.519000,29.09
0.063870,0.829000,0.374000,-1.590000,-9.328000,135.863000,-65.038000,29.19
0.064334,0.703000,0.168000,-1.673000,-16.534000,117.053000,-81.405000,29.14
0.064833,0.821000,-0.285000,-1.442000,-19.221000,107.191000,-69.435000,29.19
0.065293,0.749000,-0.625000,-0.753000,-21.802000,56.260000,-53.802000,29.09
0.065751,0.583000,-0.277000,-1.111000,-27.725000,24.229000,-43.313000,29.09
0.066219,0.486000,-0.159000,-1.150000,-26.748000,13.603000,-36.550000,29.14
0.066696,0.602000,-0.565000,-0.700000,-43.496000,24.229000,-32.168000,29.14
0.067160,0.726000,-0.755000,-0.687000,-60.504000,20.046000,-31.435000,29.19
0.067618,0.555000,-0.438000,-0.796000,-76.244000,3.771000,-31.710000,29.19
0.068087,0.555000,-0.401000,-0.806000,-90.214000,10.473000,-33.328000,29.14
0.068556,0.489000,-0.447000,-0.744000,-109.893000,-3.985000,-34.794000,29.14
0.069019,0.383000,-0.403000,-0.762000,-126.000000,-23.084000,-39.282000,29.09
0.069490,0.484000,-0.421000,-0.896000,-146.000000,-26.275000,-41.863000,29.09
0.070046,0.419000,-0.084000,-1.225000,-139.420000,-25.206000,-41.130000,29.14
0.070686,0.469000,-0.114000,-1.097000,-128.107000,-12.046000,-37.847000,29.05
0.071170,0.490000,0.001000,-1.128000,-104.809000,-0.198000,-32.168000,29.09
0.071636,0.482000,-0.107000,-1.037000,-69.313000,-11.069000,-27.740000,29.09
0.072114,0.474000,-0.124000,-0.999000,-45.954000,-14.947000,-22.198000,29.14
0.072588,0.472000,-0.125000,-0.904000,-33.206000,-12.351000,-16.183000,29.09
0.073068,0.451000,-0.090000,-0.905000,-22.198000,-16.153000,-11.221000,29.19
0.073543,0.423000,-0.110000,-0.917000,-20.183000,-17.771000,-7.847000,29.09
0.074020,0.397000,-0.114000,-0.906000,-17.191000,-15.206000,-6.656000,29.14
0.074494,0.394000,-0.129000,-0.935000,-16.702000,-10.718000,-6.076000,29.14
0.074945,0.385000,-0.135000,-0.808000,-20.336000,-1.847000,-6.656000,29.09
0.075383,0.402000,-0.130000,-0.936000,-17.863000,-2.122000,-6.794000,29.09
0.075812,0.399000,-0.137000,-0.911000,-14.000000,-1.695000,-6.977000,29.14
0.076247,0.384000,-0.156000,-0.918000,-13.969000,-7.588000,-6.901000,29.05
0.076672,0.382000,-0.154000,-0.899000,-12.229000,-11.679000,-7.145000,29.09
0.077119,0.392000,-0.152000,-0.909000,-14.107000,-12.489000,-7.282000,29.09
0.077558,0.376000,-0.160000,-0.894000,-16.321000,-9.817000,-7.573000,29.14
0.077986,0.389000,-0.155000,-0.901000,-15.710000,-8.244000,-8.412000,29.14
0.078425,0.386000,-0.128000,-0.912000,-18.015000,-3.191000,-8.809000,29.09
0.078847,0.384000,-0.130000,-0.901000,-15.740000,-1.588000,-9.023000,29.19
0.079274,0.374000,-0.113000,-0.921000,-14.107000,-3.588000,-7.802000,29.14
0.079700,0.386000,-0.094000,-0.919000,-11.634000,-5.954000,-6.718000,29.09
0.080237,0.382000,-0.120000,-0.905000,-11.237000,-4.336000,-5.969000,29.09
0.080879,0.383000,-0.104000,-0.906000,-9.267000,-3.282000,-5.237000,29.09
0.081378,0.394000,-0.107000,-0.907000,-8.779000,-0.412000,-4.656000,29.05
0.081838,0.390000,-0.083000,-0.928000,-4.290000,0.840000,-3.725000,29.05
0.082338,0.398000,-0.076000,-0.936000,-2.824000,2.656000,-1.725000,29.09
0.082865,0.406000,-0.073000,-0.940000,-0.595000,0.305000,0.275000,29.00
0.083344,0.410000,-0.071000,-0.941000,1.939000,-2.046000,2.931000,29.05
0.083778,0.370000,-0.092000,-0.917000,5.237000,-2.870000,4.794000,29.05
0.084200,0.344000,-0.146000,-0.896000,6.473000,-0.198000,5.435000,29.09
0.084611,0.318000,-0.143000,-0.896000,9.588000,3.359000,4.458000,29.09
0.085024,0.358000,-0.153000,-0.891000,8.748000,9.344000,3.328000,29.14
0.085444,0.370000,-0.120000,-0.915000,8.840000,12.122000,3.756000,29.05
0.085866,0.383000,-0.137000,-0.927000,8.947000,13.542000,4.336000,29.19
0.086278,0.396000,-0.164000,-0.928000,8.031000,12.107000,4.672000,29.09
0.086695,0.415000,-0.172000,-0.909000,6.443000,9.069000,4.168000,29.05
0.087136,0.416000,-0.154000,-0.909000,5.466000,5.267000,4.351000,29.19
0.087566,0.398000,-0.134000,-0.915000,4.443000,3.084000,4.580000,29.09
0.087972,0.400000,-0.147000,-0.902000,2.840000,1.725000,4.779000,29.09
0.088389,0.401000,-0.129000,-0.906000,1.954000,1.618000,4.992000,29.14
0.088837,0.393000,-0.120000,-0.900000,2.763000,-0.076000,5.969000,29.05
0.089389,0.384000,-0.099000,-0.917000,5.344000,-0.901000,7.405000,29.09
0.089921,0.382000,-0.094000,-0.930000,7.893000,0.351000,9.496000,29.09
0.090414,0.379000,-0.099000,-0.930000,10.718000,0.672000,11.542000,29.14
0.090873,0.382000,-0.109000,-0.926000,13.618000,2.885000,13.634000,29.14
0.091365,0.373000,-0.119000,-0.920000,16.382000,3.160000,15.099000,29.00
0.091861,0.376000,-0.137000,-0.921000,18.550000,3.450000,16.076000,29.09
0.092327,0.396000,-0.167000,-0.906000,18.748000,5.008000,16.565000,29.14
0.092784,0.381000,-0.172000,-0.898000,17.802000,5.160000,16.534000,29.00
0.093223,0.361000,-0.183000,-0.892000,16.382000,3.466000,15.389000,29.09
0.093667,0.356000,-0.198000,-0.899000,15.695000,3.206000,13.511000,29.14
0.094134,0.362000,-0.197000,-0.872000,13.893000,2.015000,12.000000,29.05
0.094595,0.344000,-0.224000,-0.870000,10.977000,2.061000,9.969000,29.09
0.095046,0.331000,-0.238000,-0.871000,9.038000,3.359000,6.947000,29.19
0.095502,0.345000,-0.231000,-0.871000,5.359000,5.695000,4.382000,29.14
0.095969,0.355000,-0.222000,-0.869000,2.809000,8.412000,2.870000,29.05
0.096572,0.361000,-0.221000,-0.873000,0.947000,10.885000,2.046000,29.09
0.097114,0.357000,-0.195000,-0.906000,-0.183000,11.634000,1.649000,29.00
0.097596,0.364000,-0.162000,-0.918000,-1.084000,11.023000,1.359000,29.05
0.098075,0.390000,-0.159000,-0.913000,0.092000,11.130000,1.908000,29.14
0.098551,0.404000,-0.147000,-0.910000,2.733000,10.947000,3.450000,29.09
0.099017,0.387000,-0.146000,-0.916000,5.679000,9.603000,4.748000,29.09
0.099500,0.370000,-0.158000,-0.921000,7.420000,8.321000,5.191000,29.05
0.100062,0.376000,-0.159000,-0.908000,8.733000,7.679000,5.481000,29.09
0.100554,0.402000,-0.159000,-0.926000,9.389000,8.015000,5.786000,29.09
0.101011,0.402000,-0.183000,-0.918000,10.137000,8.473000,6.107000,29.19
0.101455,0.392000,-0.200000,-0.908000,10.214000,6.840000,5.786000,29.05
0.101895,0.367000,-0.221000,-0.894000,9.756000,4.947000,5.160000,29.05
0.102333,0.373000,-0.227000,-0.895000,8.061000,3.099000,3.924000,29.09
0.102768,0.380000,-0.208000,-0.897000,7.740000,4.015000,3.588000,29.09
0.103183,0.386000,-0.196000,-0.897000,8.122000,3.664000,3.786000,29.05
0.103613,0.385000,-0.205000,-0.897000,8.855000,3.756000,3.939000,29.05
0.104038,0.371000,-0.211000,-0.876000,8.550000,5.939000,3.420000,29.09
0.104455,0.368000,-0.221000,-0.886000,8.809000,5.435000,3.099000,29.09
0.104866,0.346000,-0.217000,-0.877000,7.344000,4.580000,2.031000,29.05
0.105285,0.361000,-0.225000,-0.864000,5.160000,4.534000,0.351000,29.05
0.105705,0.375000,-0.240000,-0.871000,2.244000,4.473000,-0.489000,29.09
0.106128,0.368000,-0.240000,-0.847000,0.076000,4.244000,-1.359000,29.09
0.106548,0.367000,-0.249000,-0.852000,-0.641000,8.443000,-2.443000,29.14
0.106974,0.377000,-0.242000,-0.882000,-1.878000,5.542000,-2.779000,29.00
0.107420,0.407000,-0.224000,-0.872000,-5.771000,10.046000,-2.626000,29.09
0.107861,0.410000,-0.198000,-0.898000,-3.405000,5.725000,-1.405000,29.09
0.108306,0.418000,-0.188000,-0.890000,-3.511000,10.794000,-1.527000,29.14
0.108756,0.389000,-0.210000,-0.893000,-2.015000,10.504000,-1.023000,29.14
0.109193,0.390000,-0.227000,-0.838000,-0.550000,1.511000,-0.168000,29.09
0.109730,0.405000,-0.238000,-0.892000,-3.939000,5.206000,-0.321000,29.09
0.110315,0.400000,-0.225000,-0.905000,-1.985000,0.031000,-0.763000,29.14
0.110771,0.390000,-0.223000,-0.874000,-3.344000,2.183000,-0.718000,29.05
0.111219,0.396000,-0.211000,-0.887000,-3.679000,3.084000,-1.130000,29.09
0.111677,0.392000,-0.208000,-0.904000,-1.817000,-0.107000,-0.947000,29.09
0.112161,0.392000,-0.212000,-0.883000,-2.550000,1.878000,-0.962000,29.14
0.112618,0.388000,-0.219000,-0.888000,-2.412000,1.160000,-1.237000,29.14
0.113049,0.388000,-0.195000,-0.897000,-2.534000,1.221000,-1.145000,29.09
0.113487,0.389000,-0.199000,-0.888000,-2.489000,-0.260000,-0.687000,29.09
0.113915,0.379000,-0.203000,-0.898000,-1.817000,-0.626000,-0.595000,29.05
0.114337,0.379000,-0.212000,-0.901000,-1.634000,-0.580000,-0.901000,29.09
0.114757,0.395000,-0.208000,-0.898000,-3.115000,1.359000,-0.916000,29.09
0.115177,0.398000,-0.213000,-0.902000,-2.168000,1.527000,-0.641000,29.09
0.115596,0.396000,-0.219000,-0.907000,-1.985000,2.489000,-0.443000,29.05
0.116063,0.387000,-0.212000,-0.896000,-2.763000,2.977000,-0.321000,29.14
0.116493,0.388000,-0.216000,-0.882000,-2.611000,2.046000,-0.122000,29.09
0.116924,0.387000,-0.208000,-0.897000,-1.847000,1.832000,-0.046000,29.09
0.117355,0.380000,-0.204000,-0.881000,-2.092000,3.679000,-0.550000,29.14
0.117781,0.389000,-0.218000,-0.888000,-2.672000,4.000000,-0.718000,29.05
0.118190,0.398000,-0.206000,-0.894000,-2.550000,3.374000,-0.626000,29.19
0.118612,0.402000,-0.203000,-0.889000,-1.847000,1.985000,-0.214000,29.00
0.119026,0.396000,-0.223000,-0.893000,-1.863000,0.336000,0.229000,29.05
0.119500,0.390000,-0.224000,-0.885000,-2.305000,-1.542000,0.198000,29.05
0.120033,0.391000,-0.220000,-0.890000,-2.931000,-1.649000,-0.153000,29.09
0.120486,0.382000,-0.208000,-0.890000,-2.611000,-1.389000,0.000000,29.19
0.120923,0.383000,-0.216000,-0.887000,-2.260000,-2.000000,0.168000,29.14
0.121367,0.380000,-0.205000,-0.903000,-1.496000,-1.618000,0.229000,29.09
0.121797,0.369000,-0.205000,-0.900000,-0.214000,-0.641000,0.443000,29.09
0.122282,0.374000,-0.211000,-0.898000,0.122000,0.641000,0.443000,29.09
0.122750,0.376000,-0.196000,-0.907000,1.282000,1.817000,0.656000,29.14
0.123200,0.377000,-0.188000,-0.910000,3.282000,3.145000,1.206000,29.14
0.123630,0.385000,-0.189000,-0.918000,5.237000,3.695000,2.260000,29.00
0.124068,0.373000,-0.198000,-0.921000,7.099000,3.771000,2.718000,29.19
0.124506,0.382000,-0.204000,-0.908000,8.046000,4.779000,2.992000,28.95
0.124989,0.379000,-0.207000,-0.903000,8.733000,5.298000,3.053000,29.14
0.125471,0.377000,-0.214000,-0.890000,9.298000,6.275000,2.992000,29.19
0.125915,0.378000,-0.221000,-0.882000,8.947000,6.305000,2.580000,29.09
0.126333,0.383000,-0.239000,-0.878000,7.939000,5.725000,2.305000,29.14
0.126745,0.384000,-0.270000,-0.875000,6.275000,5.954000,1.893000,29.05
0.127215,0.366000,-0.262000,-0.860000,4.870000,5.679000,1.359000,29.00
0.127704,0.374000,-0.260000,-0.872000,2.595000,5.176000,0.412000,29.09
0.128140,0.389000,-0.254000,-0.868000,0.519000,4.458000,0.107000,29.05
0.128576,0.384000,-0.237000,-0.873000,-0.305000,3.908000,0.015000,29.09
0.129005,0.387000,-0.242000,-0.880000,0.046000,2.641000,0.046000,29.09
0.129495,0.368000,-0.246000,-0.864000,-0.809000,1.618000,-0.321000,29.09
0.129955,0.374000,-0.257000,-0.867000,-2.794000,2.183000,-1.008000,29.14
0.130400,0.388000,-0.248000,-0.881000,-4.260000,3.527000,-1.359000,29.05
0.130841,0.389000,-0.230000,-0.880000,-4.092000,3.435000,-1.374000,29.09
0.131278,0.386000,-0.224000,-0.903000,-3.603000,2.336000,-0.977000,29.09
0.131714,0.379000,-0.222000,-0.894000,-3.115000,1.389000,-0.672000,29.05
0.132187,0.375000,-0.221000,-0.894000,-2.718000,2.015000,-0.595000,29.14
0.132626,0.366000,-0.232000,-0.875000,-3.405000,2.763000,-1.176000,29.09
0.133100,0.371000,-0.249000,-0.880000,-4.580000,3.511000,-1.863000,29.09
0.133595,0.383000,-0.243000,-0.877000,-5.435000,3.969000,-2.168000,29.05
0.134041,0.374000,-0.233000,-0.884000,-6.107000,3.466000,-2.534000,29.05
0.134455,0.366000,-0.242000,-0.867000,-7.328000,3.160000,-3.053000,29.09
0.134868,0.375000,-0.243000,-0.876000,-8.992000,3.985000,-3.435000,29.19
0.135283,0.386000,-0.223000,-0.881000,-9.603000,4.153000,-3.802000,29.05
0.135698,0.371000,-0.218000,-0.886000,-8.992000,4.046000,-3.939000,29.00
0.136113,0.380000,-0.215000,-0.894000,-8.733000,4.214000,-3.802000,29.09
0.136519,0.382000,-0.195000,-0.896000,-7.679000,4.565000,-3.679000,29.00
0.136933,0.380000,-0.196000,-0.897000,-5.878000,4.855000,-3.115000,29.05
0.137359,0.368000,-0.203000,-0.906000,-4.489000,5.527000,-2.779000,29.14
0.137787,0.375000,-0.194000,-0.890000,-3.588000,6.779000,-2.794000,29.09
0.138196,0.382000,-0.184000,-0.900000,-1.679000,8.702000,-2.183000,29.09
0.138601,0.392000,-0.187000,-0.909000,0.229000,7.847000,-1.573000,29.05
0.139009,0.389000,-0.200000,-0.902000,1.252000,7.756000,-0.763000,29.05
0.139488,0.395000,-0.204000,-0.899000,2.321000,7.740000,-0.427000,29.00
0.139995,0.408000,-0.215000,-0.889000,2.321000,7.221000,0.015000,29.19
0.140427,0.403000,-0.226000,-0.882000,2.443000,7.099000,0.061000,29.05
0.140861,0.407000,-0.238000,-0.884000,2.092000,6.885000,0.275000,29.05
0.141337,0.403000,-0.235000,-0.883000,2.183000,6.092000,0.244000,29.09
0.141811,0.395000,-0.236000,-0.888000,2.015000,5.420000,0.168000,29.09
0.142281,0.410000,-0.224000,-0.889000,1.725000,5.893000,0.366000,29.05
0.142713,0.394000,-0.229000,-0.885000,1.481000,6.901000,0.015000,29.09
0.143127,0.385000,-0.229000,-0.876000,0.947000,6.534000,-0.336000,29.09
0.143535,0.401000,-0.228000,-0.901000,1.603000,4.092000,-0.183000,29.09
0.143946,0.405000,-0.234000,-0.887000,1.176000,5.374000,-0.427000,29.14
0.144359,0.404000,-0.219000,-0.913000,1.634000,7.237000,-0.473000,29.14
0.144774,0.406000,-0.220000,-0.885000,1.374000,8.153000,-0.275000,29.09
0.145189,0.426000,-0.218000,-0.906000,3.374000,0.626000,0.992000,29.19
0.145623,0.431000,-0.229000,-0.915000,3.786000,-0.992000,1.832000,29.05
0.146045,0.426000,-0.214000,-0.909000,4.153000,-2.122000,2.473000,29.05
0.146456,0.421000,-0.213000,-0.905000,4.962000,-2.550000,2.962000,29.09
0.146863,0.405000,-0.222000,-0.908000,6.824000,-3.939000,3.176000,29.09
0.147293,0.394000,-0.223000,-0.907000,8.061000,-4.031000,3.405000,29.14
0.147718,0.390000,-0.230000,-0.914000,8.672000,-1.756000,3.221000,29.14
0.148134,0.402000,-0.238000,-0.920000,10.168000,1.298000,2.550000,29.09
0.148539,0.413000,-0.232000,-0.930000,12.870000,3.176000,3.115000,29.09
0.148949,0.388000,-0.227000,-0.918000,16.641000,2.412000,4.183000,29.05
0.149441,0.383000,-0.233000,-0.909000,18.366000,2.931000,4.076000,29.09
0.149990,0.402000,-0.253000,-0.932000,20.061000,5.023000,4.260000,29.09
0.150447,0.390000,-0.252000,-0.929000,22.824000,5.084000,3.679000,29.00
0.150886,0.387000,-0.230000,-0.884000,26.107000,4.244000,3.069000,29.05
0.151309,0.386000,-0.229000,-0.885000,25.328000,0.947000,3.053000,29.14
0.151718,0.367000,-0.210000,-0.871000,22.336000,1.893000,1.588000,29.09
0.152141,0.357000,-0.219000,-0.856000,21.344000,-0.779000,-0.153000,29.19
0.152590,0.340000,-0.215000,-0.896000,18.885000,-1.481000,-3.053000,29.14
0.153023,0.343000,-0.170000,-0.888000,17.939000,-4.931000,-8.931000,29.05
0.153446,0.336000,-0.071000,-0.918000,19.450000,-7.435000,-19.466000,29.00
0.153876,0.278000,0.073000,-0.937000,19.832000,-13.359000,-36.809000,29.00
0.154331,0.264000,0.217000,-1.035000,21.374000,-22.565000,-60.504000,29.05
0.154767,0.253000,0.329000,-1.087000,27.008000,-32.458000,-89.252000,29.05
0.155228,0.308000,0.372000,-1.105000,34.031000,-42.656000,-117.069000,29.09
0.155700,0.359000,0.362000,-1.073000,43.603000,-52.611000,-142.183000,29.14
0.156135,0.433000,0.318000,-1.073000,52.229000,-60.840000,-163.863000,29.14
0.156566,0.475000,0.240000,-1.017000,58.366000,-68.611000,-179.588000,29.19
0.156992,0.516000,0.106000,-0.948000,58.122000,-75.008000,-189.649000,29.00
0.157431,0.502000,0.036000,-0.847000,62.443000,-78.504000,-196.076000,29.14
0.157869,0.511000,0.010000,-0.820000,61.847000,-72.962000,-203.267000,29.14
0.158312,0.522000,0.033000,-0.876000,64.031000,-70.000000,-211.359000,29.00
0.158756,0.568000,-0.025000,-0.877000,66.977000,-67.634000,-216.046000,29.09
0.159198,0.585000,-0.053000,-0.849000,68.458000,-68.611000,-219.206000,29.14
0.159760,0.562000,-0.077000,-0.810000,72.229000,-69.496000,-220.641000,29.24
0.160370,0.575000,-0.043000,-0.793000,72.443000,-67.527000,-224.092000,29.19
0.160840,0.579000,-0.024000,-0.808000,74.214000,-63.939000,-229.374000,29.09
0.161307,0.598000,-0.010000,-0.825000,75.084000,-61.359000,-235.924000,29.05
0.161769,0.620000,0.016000,-0.832000,80.153000,-62.473000,-243.924000,29.00
0.162289,0.666000,-0.010000,-0.843000,84.962000,-64.855000,-250.122000,29.09
0.162786,0.694000,-0.017000,-0.859000,89.298000,-67.908000,-255.588000,29.00
0.163264,0.699000,-0.035000,-0.844000,94.534000,-69.954000,-258.458000,29.14
0.163742,0.698000,-0.062000,-0.818000,99.298000,-70.244000,-260.519000,29.05
0.164206,0.730000,-0.120000,-0.856000,104.290000,-69.725000,-259.725000,29.00
0.164672,0.775000,-0.191000,-0.890000,104.260000,-69.252000,-255.069000,29.09
0.165125,0.740000,-0.272000,-0.816000,105.664000,-73.084000,-244.015000,29.05
0.165576,0.677000,-0.332000,-0.753000,106.534000,-78.031000,-231.405000,29.05
0.166212,0.584000,-0.399000,-0.682000,97.771000,-72.305000,-217.756000,29.09
0.166777,0.531000,-0.467000,-0.744000,103.679000,-82.580000,-202.550000,29.09
0.167268,0.540000,-0.569000,-0.713000,88.656000,-61.053000,-187.664000,29.05
0.167721,0.495000,-0.608000,-0.720000,85.466000,-57.771000,-174.763000,29.05
0.168158,0.507000,-0.627000,-0.678000,75.588000,-43.221000,-161.939000,29.09
0.168610,0.476000,-0.598000,-0.685000,67.038000,-35.420000,-150.763000,29.19
0.169054,0.474000,-0.555000,-0.707000,59.573000,-28.137000,-141.634000,29.05
0.169497,0.480000,-0.494000,-0.737000,55.160000,-24.809000,-134.580000,28.91
0.169934,0.497000,-0.401000,-0.792000,49.679000,-22.992000,-130.168000,29.00
0.170366,0.488000,-0.312000,-0.833000,45.710000,-24.611000,-129.847000,29.09
0.170799,0.476000,-0.228000,-0.866000,42.473000,-29.557000,-133.710000,28.95
0.171232,0.479000,-0.174000,-0.870000,42.015000,-37.863000,-140.702000,29.09
0.171664,0.499000,-0.107000,-0.859000,39.511000,-43.389000,-149.695000,29.09
0.172110,0.509000,-0.086000,-0.851000,38.458000,-47.191000,-159.847000,29.05
0.172561,0.525000,-0.056000,-0.829000,41.130000,-49.252000,-168.305000,29.05
0.173010,0.581000,-0.051000,-0.849000,43.389000,-49.618000,-176.901000,29.09
0.173472,0.575000,-0.105000,-0.856000,48.092000,-49.374000,-181.893000,29.09
0.173925,0.570000,-0.173000,-0.871000,52.183000,-50.229000,-180.840000,29.14
0.174376,0.531000,-0.265000,-0.830000,56.198000,-51.237000,-176.290000,29.09
0.174819,0.523000,-0.361000,-0.817000,56.244000,-50.672000,-167.618000,29.09
0.175275,0.489000,-0.426000,-0.824000,56.565000,-46.168000,-156.336000,29.09
0.175733,0.447000,-0.489000,-0.793000,55.634000,-44.305000,-141.328000,29.14
0.176168,0.422000,-0.585000,-0.787000,53.481000,-37.802000,-121.756000,29.14
0.176714,0.412000,-0.689000,-0.791000,51.496000,-33.863000,-98.214000,29.09
0.177383,0.385000,-0.790000,-0.723000,47.878000,-24.595000,-73.267000,29.09
0.177846,0.373000,-0.853000,-0.671000,42.718000,-12.794000,-50.305000,29.05
0.178270,0.401000,-0.825000,-0.678000,36.809000,-7.954000,-29.847000,29.05
0.178684,0.424000,-0.739000,-0.706000,23.328000,7.084000,-15.405000,29.09
0.179103,0.443000,-0.617000,-0.760000,8.809000,12.763000,-8.076000,29.09
0.179522,0.456000,-0.520000,-0.765000,-4.260000,15.740000,-3.802000,29.05
0.179943,0.402000,-0.375000,-0.808000,-10.489000,7.969000,-1.969000,29.05
0.180359,0.356000,-0.292000,-0.844000,-17.221000,2.916000,-2.092000,29.00
0.180788,0.334000,-0.285000,-0.865000,-19.115000,-5.771000,-2.336000,29.05
0.181213,0.319000,-0.296000,-0.871000,-21.954000,-8.122000,-4.046000,29.05
0.181646,0.304000,-0.307000,-0.824000,-23.267000,-11.069000,-4.901000,29.00
0.182093,0.278000,-0.268000,-0.827000,-24.031000,-10.076000,-6.412000,28.91
0.182527,0.259000,-0.180000,-0.863000,-26.137000,-5.908000,-9.435000,29.05
0.182956,0.250000,-0.124000,-0.947000,-26.305000,-3.282000,-13.160000,29.05
0.183408,0.270000,-0.125000,-0.957000,-25.817000,1.389000,-15.099000,29.09
0.183858,0.285000,-0.155000,-0.965000,-22.504000,5.481000,-15.878000,29.09
0.184293,0.313000,-0.166000,-1.003000,-19.405000,9.969000,-15.496000,29.14
0.184720,0.383000,-0.153000,-1.033000,-11.817000,16.076000,-11.863000,29.05
0.185149,0.416000,-0.128000,-1.055000,-3.252000,21.420000,-7.145000,29.09
0.185564,0.403000,-0.181000,-0.894000,5.191000,17.099000,-3.008000,29.00
0.185983,0.416000,-0.244000,-0.924000,10.229000,12.168000,-0.733000,29.05
0.186481,0.358000,-0.221000,-0.862000,10.061000,8.901000,-0.504000,29.09
0.187064,0.369000,-0.215000,-0.874000,9.221000,13.221000,-0.718000,29.09
0.187527,0.387000,-0.232000,-0.872000,6.534000,16.809000,-0.153000,29.00
0.187973,0.378000,-0.241000,-0.892000,5.695000,16.260000,-0.656000,28.95
0.188411,0.392000,-0.270000,-0.896000,6.382000,13.069000,-1.466000,29.14
0.188856,0.415000,-0.286000,-0.874000,5.084000,12.336000,-1.939000,29.09
0.189299,0.405000,-0.256000,-0.896000,3.282000,11.771000,-2.198000,29.09
0.189744,0.385000,-0.243000,-0.896000,1.771000,11.740000,-2.275000,29.14
0.190186,0.371000,-0.238000,-0.900000,0.565000,12.779000,-2.107000,29.05
0.190630,0.348000,-0.206000,-0.913000,0.046000,13.389000,-1.893000,29.00
0.191105,0.351000,-0.224000,-0.891000,1.038000,13.924000,-2.214000,29.05
0.191553,0.365000,-0.244000,-0.885000,1.252000,15.481000,-3.420000,29.14
0.192014,0.377000,-0.229000,-0.893000,0.794000,15.634000,-4.000000,29.19
0.192483,0.400000,-0.223000,-0.911000,-0.031000,18.687000,-4.275000,29.09
0.192937,0.410000,-0.228000,-0.906000,-0.580000,19.115000,-3.954000,29.14
0.193377,0.417000,-0.245000,-0.901000,-0.931000,14.916000,-3.115000,29.05
0.193814,0.406000,-0.241000,-0.908000,-0.137000,13.267000,-2.840000,29.09
0.194242,0.417000,-0.231000,-0.903000,-0.855000,8.519000,-2.015000,29.09
0.194664,0.403000,-0.216000,-0.918000,0.779000,8.290000,-1.237000,29.24
0.195088,0.389000,-0.207000,-0.885000,3.191000,10.382000,-0.550000,29.14
0.195506,0.394000,-0.218000,-0.894000,5.115000,6.351000,0.718000,29.00
0.195925,0.392000,-0.243000,-0.886000,3.939000,12.718000,0.733000,29.19
0.196423,0.400000,-0.227000,-0.921000,5.481000,10.076000,0.672000,29.05
0.196944,0.395000,-0.237000,-0.919000,5.389000,7.313000,1.069000,29.05
0.197444,0.393000,-0.237000,-0.831000,-0.229000,15.481000,1.237000,29.09
0.197908,0.407000,-0.242000,-0.888000,3.740000,7.863000,0.748000,29.00
0.198360,0.403000,-0.250000,-0.878000,3.237000,5.954000,0.595000,29.14
0.198802,0.403000,-0.244000,-0.874000,3.038000,5.832000,0.198000,29.00
0.199241,0.395000,-0.234000,-0.882000,2.519000,6.992000,0.458000,29.09
0.199675,0.398000,-0.222000,-0.885000,2.473000,6.656000,0.672000,29.09
0.200138,0.391000,-0.237000,-0.879000,2.840000,6.580000,0.901000,29.14
0.200589,0.386000,-0.232000,-0.888000,3.115000,6.824000,0.870000,29.05
0.201016,0.406000,-0.227000,-0.892000,3.725000,7.344000,1.267000,29.09
0.201424,0.405000,-0.234000,-0.874000,4.412000,6.824000,1.588000,29.00
0.201832,0.392000,-0.241000,-0.866000,5.038000,6.565000,1.985000,29.14
0.202258,0.395000,-0.249000,-0.877000,5.298000,6.641000,1.969000,29.05
0.202687,0.401000,-0.245000,-0.875000,5.359000,8.443000,1.939000,29.00
0.203103,0.395000,-0.242000,-0.892000,5.466000,7.191000,2.351000,29.05
0.203521,0.412000,-0.245000,-0.884000,4.855000,6.901000,2.366000,29.14
0.203932,0.406000,-0.250000,-0.866000,4.794000,6.397000,2.275000,29.00
0.204343,0.404000,-0.244000,-0.876000,4.702000,5.511000,2.382000,29.00
0.204750,0.410000,-0.256000,-0.879000,4.641000,5.450000,2.412000,29.05
0.205162,0.411000,-0.257000,-0.878000,4.824000,3.878000,2.794000,29.14
0.205580,0.417000,-0.264000,-0.877000,4.244000,2.931000,2.840000,29.09
0.205992,0.406000,-0.270000,-0.885000,4.550000,2.885000,2.626000,29.09
0.206482,0.416000,-0.295000,-0.872000,2.992000,2.947000,2.153000,29.05
0.207012,0.416000,-0.301000,-0.871000,0.489000,2.473000,1.298000,29.14
0.207509,0.406000,-0.295000,-0.856000,-1.511000,1.802000,0.397000,29.09
0.207959,0.417000,-0.306000,-0.842000,-4.565000,0.260000,-0.992000,29.09
0.208404,0.418000,-0.299000,-0.847000,-8.000000,-1.450000,-2.565000,29.05
0.208852,0.417000,-0.293000,-0.847000,-11.267000,-3.405000,-3.740000,29.09
0.209288,0.410000,-0.289000,-0.853000,-14.550000,-4.275000,-4.977000,29.09
0.209714,0.418000,-0.272000,-0.876000,-16.382000,-4.458000,-5.282000,29.05
0.210140,0.422000,-0.257000,-0.901000,-15.969000,-5.023000,-5.008000,29.14
0.210569,0.407000,-0.230000,-0.918000,-13.695000,-6.031000,-3.954000,28.91
0.210997,0.403000,-0.214000,-0.916000,-10.229000,-5.954000,-2.992000,29.09
0.211436,0.408000,-0.205000,-0.927000,-6.855000,-4.305000,-1.298000,29.14
0.211883,0.405000,-0.191000,-0.932000,-3.221000,-3.618000,0.397000,29.05
0.212322,0.413000,-0.210000,-0.928000,0.580000,-2.870000,1.908000,29.09
0.212770,0.407000,-0.237000,-0.914000,3.313000,-2.824000,2.855000,29.00
0.213198,0.409000,-0.255000,-0.895000,4.473000,-3.328000,3.542000,29.14
0.213618,0.405000,-0.263000,-0.885000,4.351000,-2.656000,3.817000,29.14
0.214030,0.409000,-0.265000,-0.873000,3.924000,-2.397000,3.817000,29.00
0.214449,0.402000,-0.246000,-0.879000,4.183000,-2.229000,3.603000,29.19
0.214867,0.384000,-0.242000,-0.872000,3.298000,-0.076000,3.115000,29.14
0.215283,0.382000,-0.247000,-0.884000,1.939000,0.687000,3.115000,29.09
0.215736,0.395000,-0.257000,-0.882000,4.275000,-1.740000,3.679000,29.00
0.216145,0.373000,-0.234000,-0.885000,5.634000,-1.389000,3.939000,29.09
0.216662,0.359000,-0.214000,-0.892000,7.573000,-0.641000,2.916000,29.05
0.217252,0.355000,-0.204000,-0.881000,9.786000,-0.672000,1.725000,29.09
0.217709,0.349000,-0.179000,-0.866000,11.252000,-1.679000,-1.053000,29.09
0.218134,0.384000,-0.174000,-0.897000,11.038000,-1.344000,-5.130000,29.05
0.218558,0.362000,-0.097000,-0.871000,10.504000,-0.977000,-12.351000,29.05
0.218976,0.279000,0.165000,-0.880000,5.847000,-9.908000,-33.847000,29.09
0.219393,0.145000,0.616000,-0.914000,-9.679000,-23.267000,-78.366000,29.09
0.219829,0.157000,1.055000,-1.221000,-18.580000,-43.588000,-144.809000,29.14
0.220256,0.362000,1.306000,-1.422000,-6.305000,-70.763000,-222.000000,29.14
0.220691,0.573000,1.312000,-1.262000,16.947000,-89.359000,-292.809000,29.00
0.221123,1.147000,0.476000,-0.654000,-31.756000,-68.901000,-328.687000,29.00
0.221548,0.980000,0.367000,-0.757000,34.137000,-90.901000,-352.931000,29.05
0.221975,0.955000,0.078000,-0.655000,64.321000,-128.595000,-351.725000,28.95
0.222427,0.903000,-0.062000,-0.699000,76.153000,-130.321000,-348.351000,29.09
0.222874,0.793000,-0.178000,-0.529000,66.947000,-99.420000,-344.611000,29.00
0.223315,0.886000,-0.310000,-0.635000,64.763000,-70.611000,-332.779000,29.05
0.223738,0.831000,-0.369000,-0.687000,75.481000,-82.931000,-322.366000,29.14
0.224166,0.757000,-0.448000,-0.561000,70.824000,-52.534000,-303.221000,29.09
0.224597,0.767000,-0.476000,-0.575000,72.092000,-38.229000,-284.748000,29.00
0.225028,0.741000,-0.497000,-0.568000,76.992000,-29.374000,-261.405000,29.05
0.225568,0.749000,-0.601000,-0.427000,76.305000,-3.817000,-232.000000,29.05
0.226010,0.828000,-0.698000,-0.536000,86.641000,22.321000,-199.145000,29.09
0.226485,0.832000,-0.805000,-0.521000,110.351000,30.473000,-159.084000,29.09
0.227061,0.876000,-1.035000,-0.851000,99.893000,37.954000,-125.160000,29.05
0.227570,0.724000,-0.946000,-0.817000,77.298000,25.939000,-94.733000,29.09
0.228059,0.515000,-0.751000,-0.845000,54.687000,8.702000,-70.092000,29.09
0.228522,0.347000,-0.521000,-0.891000,40.794000,5.679000,-54.687000,29.05
0.228971,0.273000,-0.449000,-0.988000,33.756000,-0.611000,-46.198000,29.14
0.229415,0.236000,-0.388000,-0.972000,27.756000,-1.130000,-41.466000,29.19
0.229858,0.198000,-0.386000,-0.967000,30.137000,-6.076000,-38.443000,29.09
0.230305,0.184000,-0.365000,-1.000000,29.832000,-16.061000,-33.969000,29.05
0.230750,0.179000,-0.388000,-0.981000,28.595000,-24.092000,-28.992000,29.05
0.231199,0.178000,-0.406000,-0.957000,23.634000,-26.260000,-21.954000,29.00
0.231641,0.181000,-0.419000,-0.924000,14.641000,-26.397000,-11.496000,29.19
0.232113,0.163000,-0.374000,-0.910000,7.511000,-24.504000,2.763000,29.24
0.232570,0.224000,-0.198000,-0.903000,1.130000,-16.947000,10.076000,29.00
0.233036,0.255000,-0.036000,-0.940000,-1.542000,-9.893000,8.183000,29.09
0.233471,0.288000,-0.019000,-0.971000,8.595000,-11.527000,5.588000,29.05
0.233881,0.291000,-0.156000,-1.033000,11.603000,-14.687000,3.359000,29.14
0.234302,0.363000,-0.232000,-0.892000,18.702000,-18.611000,3.206000,29.00
0.234717,0.295000,-0.249000,-0.822000,13.298000,-12.489000,1.695000,29.09
0.235130,0.270000,-0.202000,-0.884000,10.168000,-7.435000,-1.893000,29.05
0.235539,0.296000,-0.238000,-0.877000,3.221000,-2.626000,-4.107000,28.95
0.235944,0.351000,-0.259000,-0.871000,-7.282000,3.756000,-5.344000,29.09
0.236356,0.359000,-0.230000,-0.894000,-13.725000,7.847000,-5.893000,29.09
0.236877,0.354000,-0.182000,-0.905000,-15.786000,4.595000,-5.802000,29.05
0.237443,0.338000,-0.179000,-0.935000,-11.695000,2.122000,-5.573000,29.09
0.237894,0.343000,-0.210000,-0.894000,-9.664000,-0.947000,-5.664000,29.00
0.238340,0.342000,-0.244000,-0.892000,-9.221000,-1.053000,-6.534000,29.00
0.238791,0.322000,-0.217000,-0.888000,-12.687000,0.458000,-7.878000,29.05
0.239238,0.302000,-0.172000,-0.906000,-22.229000,7.221000,-7.679000,29.05
0.239677,0.309000,-0.125000,-0.925000,-18.153000,7.664000,-8.397000,29.09
0.240117,0.338000,-0.151000,-0.931000,-15.847000,6.015000,-7.847000,29.09
0.240602,0.352000,-0.174000,-0.920000,-14.840000,3.618000,-7.359000,29.05
0.241048,0.354000,-0.163000,-0.928000,-14.427000,2.305000,-7.542000,29.09
0.241486,0.360000,-0.180000,-0.916000,-16.427000,2.962000,-7.756000,29.00
0.241951,0.348000,-0.178000,-0.924000,-22.687000,-0.107000,-7.771000,29.05
0.242468,0.337000,-0.191000,-0.923000,-26.015000,-1.191000,-9.420000,29.09
0.243018,0.338000,-0.181000,-0.915000,-29.282000,-2.366000,-11.328000,29.00
0.243479,0.332000,-0.170000,-0.908000,-29.603000,-4.565000,-12.229000,29.19
0.243924,0.333000,-0.155000,-0.906000,-30.947000,-3.527000,-13.008000,28.95
0.244371,0.371000,-0.124000,-0.934000,-29.206000,0.168000,-12.611000,29.05
0.244821,0.364000,-0.111000,-1.042000,-6.656000,-31.924000,-10.611000,29.00
0.245269,0.362000,-0.102000,-1.079000,-16.748000,-3.023000,-11.008000,29.09
0.245712,0.336000,-0.099000,-0.919000,-19.038000,5.389000,-9.725000,29.05
0.246150,0.343000,-0.098000,-0.948000,-11.237000,-0.275000,-7.740000,29.14
0.246588,0.325000,-0.114000,-0.937000,-8.550000,0.580000,-6.672000,29.09
0.247020,0.322000,-0.121000,-0.926000,-7.557000,1.267000,-5.679000,28.95
0.247495,0.336000,-0.107000,-0.927000,-6.626000,2.504000,-5.863000,29.05
0.247950,0.339000,-0.111000,-0.929000,-4.198000,3.389000,-5.603000,29.09
0.248373,0.345000,-0.129000,-0.923000,-2.382000,1.893000,-5.344000,29.00
0.248797,0.361000,-0.127000,-0.899000,-1.527000,0.580000,-5.130000,29.05
0.249284,0.346000,-0.119000,-0.931000,-1.252000,2.122000,-5.374000,29.05
0.249797,0.330000,-0.120000,-0.931000,-1.649000,6.275000,-5.786000,29.09
0.250255,0.336000,-0.119000,-0.925000,-0.198000,7.282000,-6.046000,29.00
0.250687,0.331000,-0.115000,-0.944000,-0.122000,6.962000,-5.710000,28.95
0.251099,0.339000,-0.119000,-0.944000,-1.725000,9.481000,-4.824000,29.14
0.251512,0.345000,-0.129000,-0.940000,-1.069000,7.695000,-4.137000,29.00
0.251933,0.356000,-0.126000,-0.932000,-1.023000,8.137000,-3.939000,29.09
0.252356,0.363000,-0.112000,-0.934000,-1.405000,6.595000,-3.115000,29.05
0.252780,0.355000,-0.116000,-0.936000,0.290000,6.595000,-2.748000,29.14
0.253193,0.360000,-0.129000,-0.931000,-1.084000,6.672000,-2.229000,29.09
0.253613,0.359000,-0.135000,-0.933000,-2.687000,5.557000,-2.794000,29.09
0.254029,0.344000,-0.126000,-0.935000,-3.588000,5.679000,-3.130000,29.05
0.254444,0.361000,-0.128000,-0.933000,-3.740000,4.840000,-3.252000,29.09
0.254858,0.362000,-0.114000,-0.924000,-4.855000,2.962000,-3.069000,29.09
0.255268,0.354000,-0.111000,-0.915000,-5.313000,4.489000,-2.733000,29.00
0.255682,0.337000,-0.095000,-0.881000,-4.580000,5.618000,-2.321000,29.05
0.256097,0.363000,-0.114000,-0.933000,1.206000,-0.840000,-2.031000,29.05
0.256516,0.343000,-0.106000,-0.936000,-1.969000,-1.679000,-0.855000,29.00
0.256926,0.343000,-0.101000,-0.935000,-0.687000,2.977000,-1.008000,29.00
0.257468,0.345000,-0.104000,-0.934000,-0.412000,2.107000,-0.565000,28.95
0.258101,0.342000,-0.110000,-0.906000,-0.824000,1.725000,-0.153000,29.05
0.258543,0.351000,-0.108000,-0.927000,0.794000,2.046000,0.275000,29.00
0.258946,0.352000,-0.109000,-0.909000,2.351000,2.244000,0.305000,29.19
0.259376,0.346000,-0.109000,-0.914000,4.031000,3.130000,0.794000,29.05
0.259800,0.337000,-0.104000,-0.923000,6.641000,4.412000,1.282000,29.05
0.260230,0.345000,-0.105000,-0.926000,9.344000,6.260000,1.786000,29.00
0.260648,0.344000,-0.113000,-0.922000,10.031000,6.748000,2.229000,29.09
0.261085,0.345000,-0.121000,-0.938000,8.718000,5.130000,2.656000,29.14
0.261517,0.343000,-0.115000,-0.941000,8.489000,5.969000,3.328000,29.00
0.261936,0.350000,-0.110000,-0.975000,9.985000,8.595000,4.840000,29.00
0.262357,0.357000,-0.145000,-0.949000,8.809000,11.206000,5.374000,29.00
0.262768,0.373000,-0.173000,-0.933000,6.855000,9.130000,4.412000,29.05
0.263190,0.384000,-0.155000,-0.945000,5.710000,8.076000,4.748000,29.09
0.263609,0.392000,-0.170000,-0.921000,3.939000,9.130000,5.618000,29.00
0.264030,0.386000,-0.188000,-0.935000,2.809000,8.260000,5.847000,29.05
0.264451,0.375000,-0.191000,-0.924000,1.557000,7.420000,5.679000,28.95
0.264870,0.357000,-0.205000,-0.915000,9.298000,8.580000,4.275000,29.09
0.265322,0.335000,-0.222000,-0.914000,-2.275000,-0.626000,4.275000,29.09
0.265750,0.339000,-0.167000,-0.912000,-5.924000,4.000000,2.840000,29.05
0.266365,0.350000,-0.133000,-0.926000,-2.565000,14.611000,1.786000,29.00
0.266800,0.353000,-0.130000,-0.929000,5.573000,19.634000,1.634000,29.00
0.267428,0.373000,-0.144000,-0.931000,-0.290000,9.008000,4.641000,29.09
0.267989,0.363000,-0.171000,-0.909000,-1.084000,10.885000,4.366000,29.05
0.268698,0.312000,-0.225000,-0.938000,-1.481000,17.328000,1.282000,29.05
0.269183,0.300000,-0.246000,-0.923000,6.489000,28.092000,-4.733000,29.09
0.269626,0.339000,-0.219000,-1.021000,-6.061000,11.511000,-6.366000,29.00
0.270084,0.427000,-0.208000,-0.910000,-14.931000,12.794000,-8.107000,28.95
0.270534,0.381000,-0.347000,-0.942000,-9.832000,23.557000,-17.573000,28.95
0.270994,0.388000,-0.011000,-0.986000,-14.931000,13.496000,-23.847000,29.09
0.271445,0.417000,-0.071000,-0.999000,-11.893000,7.511000,-30.183000,29.00
0.271884,0.382000,-0.127000,-0.872000,7.099000,4.107000,-35.084000,29.05
0.272311,0.403000,-0.227000,-0.828000,15.038000,3.649000,-35.847000,29.14
0.272741,0.440000,-0.368000,-0.730000,23.145000,10.504000,-30.489000,29.00
0.273185,0.493000,-0.531000,-0.597000,31.710000,29.588000,-22.061000,29.00
0.273615,0.524000,-0.605000,-0.508000,32.214000,56.015000,-10.748000,28.95
0.274050,0.573000,-0.573000,-0.653000,26.656000,55.496000,5.695000,29.09
0.274595,0.481000,-0.460000,-0.861000,31.802000,44.153000,16.489000,29.00
0.275058,0.370000,-0.324000,-0.887000,28.855000,43.069000,20.534000,29.05
0.275496,0.323000,-0.222000,-0.940000,27.740000,40.977000,21.038000,29.05
0.275943,0.300000,-0.160000,-1.043000,32.580000,30.992000,20.260000,29.00
0.276385,0.249000,-0.136000,-1.054000,29.481000,16.198000,20.916000,29.09
0.276821,0.223000,-0.123000,-0.967000,25.374000,4.519000,20.305000,29.05
0.277258,0.202000,-0.116000,-0.901000,18.641000,-2.794000,19.802000,29.05
0.277779,0.189000,-0.111000,-0.873000,13.588000,-7.985000,18.214000,29.09
0.278384,0.298000,-0.128000,-0.891000,6.458000,-17.756000,11.145000,29.09
0.278887,0.371000,0.089000,-1.012000,-20.641000,-22.580000,-4.809000,29.05
0.279477,0.335000,0.522000,-1.004000,-26.565000,-32.244000,-20.000000,29.00
0.279949,0.528000,0.740000,-1.058000,-7.786000,-40.580000,-42.321000,29.09
0.280395,0.744000,0.766000,-1.127000,28.229000,-82.046000,-52.733000,29.00
0.280846,0.570000,0.131000,-0.798000,20.244000,-57.679000,-32.672000,28.95
0.281285,0.372000,-0.303000,-0.850000,11.695000,-59.359000,6.748000,29.05
0.281718,0.136000,0.022000,-0.781000,8.092000,-35.389000,12.916000,29.00
0.282161,0.074000,0.049000,-1.191000,10.947000,-26.092000,2.595000,29.09
0.282603,0.350000,-0.330000,-0.879000,1.466000,-14.977000,-7.695000,29.14
0.283037,0.555000,-0.650000,-0.759000,-10.901000,12.229000,-8.519000,29.05
0.283489,0.420000,-0.315000,-0.911000,-11.450000,17.084000,-8.519000,29.00
0.283934,0.324000,-0.096000,-1.043000,0.046000,20.458000,-10.443000,29.00
0.284378,0.351000,-0.186000,-0.888000,-0.107000,9.908000,-6.168000,29.05
0.284820,0.406000,-0.262000,-0.908000,1.908000,6.931000,-5.603000,29.14
0.285289,0.422000,-0.230000,-0.882000,6.092000,11.786000,-7.344000,29.00
0.285728,0.429000,-0.245000,-0.910000,3.557000,14.321000,-7.863000,29.19
0.286181,0.397000,-0.215000,-0.828000,-13.130000,21.267000,-6.931000,29.14
0.286644,0.403000,-0.189000,-0.796000,-7.435000,12.794000,-5.786000,29.00
0.287096,0.391000,-0.149000,-0.937000,-2.397000,0.153000,-4.382000,29.09
0.287634,0.389000,-0.146000,-0.913000,-2.916000,9.634000,-3.725000,29.09
0.288114,0.386000,-0.157000,-0.929000,-0.061000,4.275000,-2.565000,29.05
0.288696,0.396000,-0.163000,-0.933000,0.137000,4.641000,-1.374000,29.05
0.289414,0.383000,-0.163000,-0.927000,0.794000,4.733000,-0.305000,29.09
0.289896,0.382000,-0.183000,-0.910000,0.870000,6.122000,0.031000,29.09
0.290342,0.377000,-0.178000,-0.909000,1.206000,6.565000,0.351000,29.05
0.290775,0.379000,-0.184000,-0.913000,1.328000,6.321000,0.611000,29.00
0.291209,0.384000,-0.176000,-0.903000,1.435000,6.748000,0.763000,29.09
0.291653,0.385000,-0.174000,-0.907000,1.374000,7.221000,1.099000,29.05
0.292153,0.387000,-0.177000,-0.902000,1.053000,7.191000,1.389000,29.05
0.292604,0.385000,-0.194000,-0.904000,0.397000,6.580000,1.282000,29.00
0.293046,0.384000,-0.193000,-0.906000,0.076000,5.527000,1.145000,29.09
0.293462,0.378000,-0.195000,-0.900000,-0.611000,5.298000,0.672000,29.05
0.293885,0.379000,-0.192000,-0.896000,-0.916000,5.374000,0.168000,29.05
0.294326,0.375000,-0.189000,-0.895000,-1.084000,5.527000,0.046000,29.00
0.294767,0.363000,-0.188000,-0.895000,-1.053000,5.847000,-0.382000,29.09
0.295204,0.365000,-0.192000,-0.895000,-0.336000,6.290000,-1.038000,29.05
0.295642,0.368000,-0.197000,-0.888000,-0.427000,6.718000,-1.985000,29.05
0.296080,0.382000,-0.193000,-0.901000,-0.916000,7.084000,-2.534000,29.09
0.296507,0.386000,-0.192000,-0.896000,-2.183000,6.565000,-2.916000,29.09
0.296937,0.381000,-0.198000,-0.901000,-2.901000,6.611000,-3.405000,29.14
0.297358,0.387000,-0.194000,-0.891000,-3.389000,6.733000,-3.847000,29.05
0.297892,0.393000,-0.177000,-0.896000,-3.160000,6.748000,-4.183000,29.09
0.298458,0.395000,-0.181000,-0.890000,-3.664000,5.725000,-3.939000,29.09
0.298913,0.395000,-0.173000,-0.901000,-3.145000,5.435000,-3.817000,29.05
0.299418,0.395000,-0.175000,-0.899000,-3.221000,4.779000,-3.435000,29.05
0.299888,0.382000,-0.179000,-0.894000,-4.122000,5.374000,-3.405000,29.09
0.300335,0.384000,-0.188000,-0.896000,-4.229000,4.702000,-3.710000,29.00
0.300777,0.382000,-0.184000,-0.904000,-3.817000,4.290000,-4.229000,29.05
0.301198,0.389000,-0.173000,-0.892000,-4.397000,5.802000,-4.305000,29.05
0.301626,0.387000,-0.168000,-0.903000,-4.122000,6.260000,-4.397000,29.09
0.302060,0.387000,-0.165000,-0.884000,-10.366000,9.237000,-3.466000,29.00
0.302482,0.345000,-0.169000,-1.086000,3.924000,-2.931000,-4.214000,29.05
0.302908,0.406000,-0.142000,-0.825000,-10.580000,32.504000,-0.321000,29.05
0.303342,0.416000,-0.193000,-0.899000,5.603000,-3.756000,-3.328000,29.09
0.303788,0.371000,-0.177000,-0.920000,-0.718000,7.420000,-3.450000,29.09
0.304353,0.373000,-0.171000,-0.891000,-2.733000,6.885000,-3.344000,29.05
0.304929,0.402000,-0.169000,-0.953000,-1.527000,5.008000,-3.313000,28.95
0.305443,0.388000,-0.166000,-0.899000,-1.893000,2.702000,-2.824000,29.00
0.305933,0.371000,-0.162000,-0.817000,-8.870000,13.023000,-2.305000,29.00
0.306415,0.399000,-0.175000,-0.890000,-4.015000,4.504000,-1.924000,29.14
0.306889,0.399000,-0.160000,-0.917000,0.458000,1.695000,-2.382000,29.00
0.307389,0.387000,-0.173000,-0.883000,-3.298000,7.511000,-2.702000,29.00
0.307912,0.386000,-0.169000,-0.889000,-3.802000,7.511000,-2.794000,29.00
0.308367,0.395000,-0.177000,-0.891000,-4.718000,7.359000,-3.130000,29.14
0.308839,0.393000,-0.167000,-0.896000,-4.885000,7.374000,-3.008000,29.14
0.309299,0.392000,-0.168000,-0.893000,-4.656000,7.740000,-2.748000,29.09
0.309749,0.397000,-0.159000,-0.903000,-4.290000,6.794000,-2.626000,29.05
0.310201,0.400000,-0.166000,-0.894000,-3.771000,6.305000,-2.244000,29.05
0.310665,0.402000,-0.163000,-0.900000,-3.450000,6.840000,-2.244000,29.09
0.311118,0.395000,-0.164000,-0.898000,-3.344000,6.382000,-2.061000,29.00
0.311584,0.398000,-0.166000,-0.900000,-3.542000,6.336000,-2.000000,29.05
0.312034,0.402000,-0.173000,-0.894000,-3.756000,6.107000,-2.015000,29.09
0.312488,0.399000,-0.166000,-0.896000,-3.878000,5.573000,-1.908000,29.00
0.312940,0.403000,-0.170000,-0.892000,-3.618000,5.664000,-2.183000,29.09
0.313387,0.402000,-0.164000,-0.897000,-3.771000,5.359000,-2.061000,29.05
0.313840,0.406000,-0.160000,-0.904000,-3.344000,5.328000,-2.183000,28.95
0.314433,0.407000,-0.157000,-0.891000,-3.771000,5.191000,-2.015000,29.00
0.315053,0.396000,-0.159000,-0.893000,-3.206000,4.366000,-1.908000,29.00
0.315534,0.403000,-0.159000,-0.890000,-2.702000,4.168000,-1.695000,29.05
0.316012,0.399000,-0.159000,-0.897000,-2.244000,4.061000,-1.847000,29.14
0.316561,0.402000,-0.162000,-0.897000,-2.412000,4.000000,-1.542000,29.09
0.317057,0.403000,-0.159000,-0.897000,-2.214000,4.107000,-1.481000,29.00
0.317509,0.404000,-0.158000,-0.905000,-2.580000,3.618000,-1.069000,28.95
0.318022,0.393000,-0.161000,-0.889000,-1.817000,4.931000,-1.542000,29.05
0.318629,0.406000,-0.155000,-0.893000,-1.588000,2.718000,-0.763000,29.00
0.319119,0.398000,-0.160000,-0.885000,-2.183000,3.939000,-0.855000,29.09
0.319585,0.404000,-0.164000,-0.888000,-2.000000,3.084000,-0.916000,29.05
0.320028,0.400000,-0.156000,-0.891000,-2.183000,2.733000,-0.702000,29.00
0.320455,0.401000,-0.157000,-0.898000,-2.534000,3.084000,-0.885000,29.00
0.320876,0.404000,-0.160000,-0.898000,-2.031000,2.458000,-0.733000,28.95
0.321292,0.401000,-0.161000,-0.887000,-2.031000,2.183000,-0.672000,29.14
0.321747,0.406000,-0.159000,-0.893000,-2.489000,2.290000,-1.069000,29.00
0.322187,0.406000,-0.166000,-0.896000,-2.580000,1.695000,-0.779000,29.00
0.322634,0.401000,-0.161000,-0.897000,-2.947000,1.527000,-0.748000,28.95
0.323089,0.405000,-0.155000,-0.896000,-2.870000,1.099000,-0.534000,29.05
0.323533,0.405000,-0.156000,-0.897000,-2.809000,0.580000,-0.473000,29.00
0.323952,0.401000,-0.161000,-0.889000,-2.534000,0.031000,-0.275000,29.00
0.324446,0.404000,-0.157000,-0.903000,-2.122000,-0.504000,-0.321000,29.05
0.324943,0.401000,-0.162000,-0.900000,-2.092000,-0.763000,0.000000,29.14
0.325410,0.405000,-0.163000,-0.895000,-2.183000,-0.702000,0.046000,29.00
0.325866,0.398000,-0.158000,-0.905000,-2.214000,-0.794000,-0.046000,29.19
0.326304,0.406000,-0.158000,-0.898000,-2.214000,-0.977000,-0.275000,28.95
0.326732,0.399000,-0.157000,-0.890000,-1.985000,-0.687000,0.153000,29.05
0.327150,0.400000,-0.158000,-0.893000,-2.321000,-0.992000,0.168000,29.09
0.327564,0.397000,-0.156000,-0.903000,-2.580000,-0.931000,0.504000,29.09
0.328110,0.399000,-0.167000,-0.897000,-2.061000,-0.351000,0.137000,29.14
0.328692,0.391000,-0.159000,-0.900000,-2.076000,-0.916000,0.214000,29.05
0.329203,0.391000,-0.154000,-0.893000,-2.763000,-1.511000,0.275000,29.09
0.329646,0.389000,-0.157000,-0.902000,-2.947000,-1.053000,0.290000,29.09
0.330058,0.391000,-0.158000,-0.907000,-3.038000,-0.443000,0.382000,28.95
0.330480,0.394000,-0.168000,-0.896000,-2.458000,-0.992000,0.137000,29.05
0.330893,0.392000,-0.164000,-0.896000,-2.153000,-0.580000,0.153000,29.00
0.331305,0.388000,-0.165000,-0.901000,-2.336000,-1.313000,0.351000,29.14
0.331716,0.382000,-0.156000,-0.890000,-3.160000,-1.328000,0.153000,29.05
0.332129,0.392000,-0.159000,-0.896000,-3.344000,-1.252000,0.046000,29.09
0.332555,0.400000,-0.162000,-0.903000,-3.725000,-1.298000,-0.244000,29.09
0.332983,0.386000,-0.155000,-0.899000,-3.664000,-1.282000,-0.107000,29.14
0.333402,0.384000,-0.165000,-0.898000,-3.771000,-0.947000,-0.229000,29.14
0.333845,0.377000,-0.159000,-0.911000,-3.878000,-0.763000,-0.366000,29.00
0.334298,0.383000,-0.154000,-0.899000,-3.954000,-0.519000,-0.290000,29.09
0.334736,0.377000,-0.159000,-0.899000,-4.076000,-0.519000,-0.351000,29.05
0.335177,0.380000,-0.159000,-0.910000,-3.817000,-0.046000,-0.427000,29.05
0.335611,0.385000,-0.158000,-0.904000,-3.771000,-0.015000,-0.412000,29.00
0.336039,0.383000,-0.151000,-0.905000,-3.786000,0.275000,-0.092000,28.91
0.336473,0.383000,-0.156000,-0.900000,-3.786000,0.214000,0.092000,29.05
0.336899,0.381000,-0.162000,-0.913000,-3.649000,0.046000,-0.183000,29.00
0.337320,0.385000,-0.157000,-0.900000,-4.015000,0.031000,-0.214000,29.09
0.337753,0.389000,-0.160000,-0.895000,-4.382000,-0.198000,-0.443000,29.05
0.338296,0.373000,-0.161000,-0.895000,-4.504000,-0.229000,-0.595000,29.05
0.338860,0.376000,-0.163000,-0.895000,-4.656000,-0.244000,-0.855000,29.00
0.339377,0.376000,-0.157000,-0.911000,-4.855000,-0.061000,-1.023000,29.00
0.339845,0.379000,-0.147000,-0.906000,-4.733000,0.321000,-1.084000,29.05
0.340264,0.376000,-0.148000,-0.901000,-4.351000,0.763000,-1.084000,29.05
0.340688,0.376000,-0.151000,-0.903000,-4.275000,0.885000,-1.252000,29.09
0.341100,0.375000,-0.146000,-0.903000,-3.878000,1.160000,-1.084000,29.00
0.341523,0.378000,-0.149000,-0.906000,-3.649000,1.282000,-0.947000,29.05
0.341956,0.375000,-0.144000,-0.912000,-3.252000,1.313000,-0.885000,29.09
0.342386,0.382000,-0.148000,-0.906000,-2.901000,1.435000,-0.824000,29.09
0.342810,0.384000,-0.142000,-0.915000,-2.672000,1.221000,-0.702000,29.00
0.343234,0.382000,-0.150000,-0.903000,-2.427000,1.344000,-0.443000,29.05
0.343705,0.375000,-0.151000,-0.909000,-2.092000,1.160000,-0.641000,29.05
0.344142,0.383000,-0.141000,-0.907000,-1.939000,1.298000,-0.305000,29.00
0.344563,0.377000,-0.145000,-0.915000,-1.618000,1.282000,-0.260000,29.00
0.344981,0.379000,-0.152000,-0.906000,-1.511000,1.405000,-0.122000,29.14
0.345403,0.381000,-0.152000,-0.904000,-1.679000,1.298000,0.092000,29.14
0.345827,0.377000,-0.145000,-0.911000,-1.450000,1.496000,0.183000,29.09
0.346268,0.373000,-0.148000,-0.907000,-1.359000,1.252000,0.458000,29.00
0.346705,0.377000,-0.145000,-0.917000,-1.206000,1.176000,0.443000,29.05
0.347175,0.370000,-0.147000,-0.912000,-0.931000,1.405000,0.611000,29.05
0.347646,0.375000,-0.143000,-0.912000,-0.611000,1.557000,0.824000,29.09
0.348192,0.378000,-0.146000,-0.917000,-0.611000,1.252000,0.947000,29.09
0.348747,0.369000,-0.156000,-0.914000,-0.809000,1.603000,1.145000,29.05
0.349307,0.371000,-0.154000,-0.900000,-1.435000,1.481000,0.992000,29.00
0.349794,0.369000,-0.146000,-0.917000,-1.313000,1.847000,0.733000,29.09
0.350312,0.369000,-0.151000,-0.904000,-1.695000,1.786000,0.748000,29.00
0.350785,0.367000,-0.149000,-0.910000,-1.313000,2.198000,0.962000,28.95
0.351222,0.374000,-0.145000,-0.905000,-1.527000,1.893000,0.962000,29.05
0.351658,0.368000,-0.151000,-0.903000,-1.344000,1.939000,0.611000,29.00
0.352093,0.365000,-0.168000,-0.910000,-1.603000,2.031000,0.733000,29.00
0.352514,0.371000,-0.154000,-0.907000,-2.015000,2.305000,0.153000,28.95
0.352935,0.367000,-0.149000,-0.908000,-2.504000,2.412000,0.198000,29.14
0.353364,0.370000,-0.159000,-0.900000,-2.580000,2.550000,0.092000,29.00
0.353792,0.374000,-0.148000,-0.899000,-2.244000,2.626000,-0.107000,29.05
0.354225,0.370000,-0.146000,-0.909000,-2.183000,2.931000,-0.366000,29.05
0.354658,0.368000,-0.154000,-0.899000,-1.985000,2.779000,-0.443000,28.91
0.355092,0.369000,-0.151000,-0.902000,-1.954000,3.344000,-0.550000,29.09
0.355515,0.370000,-0.155000,-0.908000,-1.908000,3.878000,-0.794000,28.95
0.355934,0.365000,-0.150000,-0.905000,-1.649000,4.092000,-1.023000,29.05
0.356356,0.376000,-0.151000,-0.905000,-1.588000,4.305000,-1.313000,29.00
0.356786,0.367000,-0.151000,-0.910000,-1.160000,4.015000,-0.779000,29.00
0.357213,0.366000,-0.145000,-0.911000,-1.191000,4.336000,-0.809000,29.05
0.357738,0.377000,-0.137000,-0.913000,-1.252000,4.244000,-0.824000,29.05
0.358343,0.378000,-0.149000,-0.907000,-0.748000,4.351000,-0.641000,29.00
0.358921,0.367000,-0.149000,-0.905000,-0.550000,4.321000,-0.870000,29.00
0.359452,0.367000,-0.155000,-0.906000,-0.122000,4.534000,-0.763000,29.05
0.359939,0.374000,-0.155000,-0.905000,-0.153000,4.718000,-0.733000,28.95
0.360377,0.372000,-0.151000,-0.906000,-0.244000,5.023000,-0.809000,29.09
0.360815,0.381000,-0.159000,-0.905000,-0.687000,4.840000,-1.023000,29.09
0.361247,0.382000,-0.156000,-0.900000,-0.977000,5.099000,-0.977000,28.95
0.361678,0.377000,-0.153000,-0.903000,-0.992000,4.779000,-1.221000,29.09
0.362094,0.376000,-0.160000,-0.912000,-1.298000,4.427000,-1.038000,29.00
0.362514,0.382000,-0.159000,-0.908000,-1.649000,4.244000,-1.145000,29.00
0.362942,0.386000,-0.153000,-0.900000,-1.817000,4.229000,-0.901000,29.05
0.363362,0.382000,-0.148000,-0.901000,-1.695000,3.557000,-1.053000,29.05
0.363796,0.376000,-0.149000,-0.908000,-1.496000,3.450000,-0.733000,29.00
0.364382,0.370000,-0.146000,-0.908000,-1.267000,2.977000,-0.443000,29.00
0.364996,0.367000,-0.154000,-0.915000,-1.466000,3.053000,-0.626000,29.05
0.365495,0.372000,-0.155000,-0.911000,-1.618000,3.237000,-0.901000,29.05
0.365982,0.375000,-0.148000,-0.904000,-1.924000,3.389000,-0.916000,29.00
0.366438,0.378000,-0.154000,-0.907000,-2.031000,3.160000,-1.023000,29.09
0.366892,0.381000,-0.151000,-0.906000,-1.802000,3.221000,-0.992000,29.05
0.367421,0.374000,-0.148000,-0.911000,-1.634000,3.145000,-0.824000,28.95
0.367887,0.368000,-0.155000,-0.912000,-1.313000,3.221000,-0.901000,29.00
0.368337,0.370000,-0.152000,-0.911000,-1.313000,3.481000,-0.962000,29.09
0.368788,0.379000,-0.146000,-0.905000,-1.664000,3.221000,-1.023000,29.05
0.369238,0.376000,-0.148000,-0.915000,-1.374000,3.038000,-0.718000,29.00
0.369825,0.383000,-0.151000,-0.905000,-1.298000,2.733000,-0.565000,29.00
0.370389,0.379000,-0.148000,-0.902000,-1.038000,2.534000,-0.229000,29.00
0.370844,0.375000,-0.150000,-0.907000,-1.038000,2.351000,-0.198000,29.05
0.371295,0.380000,-0.150000,-0.914000,-0.565000,2.107000,-0.275000,28.95
0.371747,0.383000,-0.149000,-0.906000,-0.366000,2.198000,-0.168000,29.00
0.372216,0.377000,-0.153000,-0.910000,-0.397000,1.817000,-0.031000,29.00
0.372746,0.380000,-0.153000,-0.907000,-0.153000,1.282000,0.122000,29.05
0.373253,0.372000,-0.151000,-0.907000,-0.260000,2.092000,0.031000,29.05
0.373705,0.387000,-0.149000,-0.914000,-0.534000,1.053000,0.321000,29.00
0.374152,0.396000,-0.156000,-0.927000,0.855000,-0.275000,0.779000,29.00
0.374582,0.374000,-0.148000,-0.923000,2.443000,-1.221000,1.023000,29.05
0.375013,0.377000,-0.155000,-0.906000,1.206000,0.641000,0.718000,29.00
0.375444,0.372000,-0.159000,-0.906000,1.450000,0.412000,0.977000,28.91
0.375862,0.367000,-0.155000,-0.904000,1.252000,1.344000,0.840000,28.95
0.376275,0.367000,-0.166000,-0.901000,0.992000,1.725000,0.412000,29.05
0.376686,0.370000,-0.154000,-0.911000,1.160000,1.939000,0.260000,29.00
0.377097,0.368000,-0.156000,-0.909000,0.809000,2.901000,0.305000,29.09
0.377506,0.367000,-0.154000,-0.904000,0.931000,3.099000,0.427000,29.14
0.377914,0.375000,-0.152000,-0.911000,0.916000,3.313000,0.275000,29.05
0.378333,0.371000,-0.159000,-0.902000,0.992000,3.405000,-0.168000,29.19
0.378752,0.354000,-0.161000,-0.887000,2.672000,12.962000,-1.099000,29.09
0.379171,0.363000,-0.154000,-0.935000,7.695000,-3.985000,0.107000,29.05
0.379699,0.366000,-0.163000,-0.883000,1.695000,1.771000,0.275000,29.05
0.380280,0.385000,-0.166000,-0.932000,2.260000,-0.733000,0.183000,29.00
0.380738,0.376000,-0.165000,-0.904000,0.901000,3.374000,-0.244000,29.09
0.381185,0.367000,-0.170000,-0.908000,0.595000,4.061000,-0.458000,29.05
0.381625,0.365000,-0.167000,-0.898000,0.214000,4.977000,-0.855000,29.00
0.382061,0.372000,-0.159000,-0.908000,0.046000,4.794000,-0.840000,29.09
0.382509,0.375000,-0.168000,-0.904000,-0.137000,4.458000,-0.931000,29.09
0.382959,0.371000,-0.159000,-0.900000,-0.244000,4.412000,-1.023000,29.05
0.383406,0.374000,-0.170000,-0.910000,-0.290000,4.641000,-1.053000,29.05
0.383910,0.371000,-0.163000,-0.902000,-0.641000,4.794000,-1.145000,29.00
0.384398,0.374000,-0.172000,-0.910000,-0.916000,4.458000,-1.176000,29.09
0.384836,0.373000,-0.165000,-0.909000,-0.885000,4.305000,-1.298000,29.05
0.385379,0.379000,-0.169000,-0.899000,-1.115000,4.168000,-0.916000,29.05
0.385938,0.378000,-0.156000,-0.911000,-0.687000,4.214000,-0.901000,29.00
0.386446,0.377000,-0.163000,-0.905000,-0.733000,3.954000,-0.947000,29.00
0.386915,0.384000,-0.164000,-0.912000,-0.183000,3.786000,-0.702000,28.95
0.387357,0.373000,-0.170000,-0.901000,0.061000,3.557000,-0.809000,29.05
0.387791,0.375000,-0.168000,-0.908000,0.214000,3.466000,-0.763000,29.19
0.388231,0.378000,-0.165000,-0.900000,0.244000,4.000000,-0.794000,29.00
0.388669,0.372000,-0.168000,-0.896000,-0.076000,3.359000,-0.824000,28.95
0.389161,0.380000,-0.164000,-0.905000,-0.031000,3.618000,-0.809000,29.09
0.389618,0.375000,-0.169000,-0.906000,-0.336000,3.435000,-0.824000,29.00
0.390066,0.377000,-0.166000,-0.910000,-0.687000,3.359000,-0.733000,29.00
0.390510,0.373000,-0.171000,-0.899000,-0.595000,2.962000,-0.626000,28.95
0.390957,0.372000,-0.167000,-0.903000,-0.733000,3.008000,-0.550000,29.14
0.391379,0.383000,-0.166000,-0.903000,-0.672000,2.885000,-0.565000,29.00
0.391812,0.379000,-0.164000,-0.903000,-0.489000,2.504000,-0.473000,29.00
0.392253,0.385000,-0.162000,-0.899000,-0.351000,2.504000,-0.458000,29.05
0.392676,0.386000,-0.165000,-0.906000,-0.183000,2.183000,-0.504000,29.00
0.393088,0.381000,-0.165000,-0.910000,0.107000,1.740000,-0.076000,29.09
0.393503,0.384000,-0.157000,-0.907000,0.305000,1.435000,0.458000,29.05
0.393912,0.383000,-0.165000,-0.910000,0.947000,1.084000,0.855000,29.05
0.394326,0.385000,-0.171000,-0.901000,1.802000,0.489000,1.069000,29.00
0.394735,0.375000,-0.167000,-0.907000,1.893000,0.779000,1.145000,28.91
0.395146,0.379000,-0.165000,-0.906000,2.076000,0.580000,1.420000,29.05
0.395591,0.375000,-0.172000,-0.904000,2.015000,0.626000,1.313000,29.05
0.396004,0.371000,-0.166000,-0.900000,2.107000,0.656000,1.542000,29.09
0.396413,0.354000,-0.168000,-0.901000,2.046000,1.298000,1.389000,29.00
0.396828,0.363000,-0.181000,-0.894000,2.458000,2.244000,0.901000,28.95
0.397242,0.371000,-0.185000,-0.898000,2.061000,2.824000,0.748000,29.05
0.397654,0.367000,-0.187000,-0.898000,1.176000,2.763000,0.458000,29.00
0.398062,0.370000,-0.180000,-0.907000,0.794000,2.397000,0.519000,29.19
0.398474,0.379000,-0.174000,-0.912000,0.229000,2.351000,0.519000,29.05
0.398887,0.377000,-0.173000,-0.904000,0.153000,1.878000,0.504000,28.95
0.399306,0.377000,-0.174000,-0.910000,0.351000,1.282000,0.748000,29.00
0.399713,0.374000,-0.178000,-0.906000,0.641000,1.115000,0.977000,29.09
0.400141,0.368000,-0.177000,-0.906000,0.565000,1.053000,0.824000,28.95
0.400594,0.366000,-0.173000,-0.897000,0.137000,1.679000,0.580000,29.00
0.401018,0.355000,-0.183000,-0.907000,-0.244000,1.710000,0.168000,29.09
0.401429,0.361000,-0.188000,-0.898000,-0.901000,2.046000,-0.168000,29.00
0.401850,0.370000,-0.182000,-0.898000,-1.603000,2.244000,-0.611000,29.05
0.402274,0.366000,-0.180000,-0.896000,-1.985000,2.214000,-0.824000,29.05
0.402692,0.367000,-0.176000,-0.897000,-2.641000,2.107000,-0.840000,28.91
0.403106,0.364000,-0.181000,-0.902000,-2.687000,1.802000,-1.023000,29.09
0.403532,0.373000,-0.183000,-0.901000,-2.519000,1.969000,-0.855000,28.95
0.403955,0.368000,-0.171000,-0.903000,-2.504000,1.954000,-0.931000,29.05
0.404377,0.370000,-0.175000,-0.902000,-2.214000,1.954000,-0.885000,29.00
0.404792,0.368000,-0.175000,-0.903000,-2.183000,2.305000,-0.870000,29.09
0.405212,0.373000,-0.169000,-0.911000,-2.000000,2.733000,-0.824000,29.05
0.405630,0.368000,-0.175000,-0.900000,-2.000000,2.809000,-0.870000,29.05
0.406050,0.369000,-0.177000,-0.909000,-1.832000,2.687000,-0.748000,29.00
0.406464,0.370000,-0.167000,-0.901000,-1.695000,2.733000,-0.595000,29.09
0.406884,0.368000,-0.172000,-0.904000,-1.603000,2.763000,-0.595000,29.05
0.407312,0.367000,-0.175000,-0.910000,-1.298000,2.901000,-0.504000,29.00
0.407730,0.366000,-0.172000,-0.900000,-1.344000,2.947000,-0.519000,29.09
0.408153,0.365000,-0.180000,-0.907000,-1.191000,3.206000,-0.519000,29.00
0.408582,0.372000,-0.178000,-0.907000,-1.191000,3.573000,-0.565000,29.05
0.409084,0.370000,-0.174000,-0.903000,-1.313000,3.496000,-0.794000,29.05
0.409687,0.362000,-0.181000,-0.913000,-1.756000,3.618000,-0.748000,29.09
0.410322,0.370000,-0.183000,-0.913000,-1.710000,3.725000,-0.794000,29.09
0.410811,0.368000,-0.179000,-0.914000,-1.695000,3.710000,-0.779000,29.05
0.411272,0.371000,-0.180000,-0.905000,-1.771000,3.893000,-0.840000,28.95
0.411700,0.370000,-0.168000,-0.907000,-1.756000,3.695000,-0.763000,29.00
0.412119,0.364000,-0.171000,-0.910000,-1.481000,3.725000,-0.336000,29.00
0.412535,0.365000,-0.177000,-0.897000,-0.977000,3.374000,-0.504000,29.05
0.412961,0.368000,-0.182000,-0.901000,-0.809000,3.573000,-0.733000,29.05
0.413384,0.370000,-0.183000,-0.897000,-0.962000,4.031000,-0.840000,29.00
0.413808,0.364000,-0.182000,-0.908000,-1.389000,4.427000,-1.023000,29.09
0.414231,0.363000,-0.177000,-0.906000,-1.710000,4.763000,-1.221000,29.05
0.414658,0.370000,-0.173000,-0.906000,-1.740000,4.687000,-1.252000,28.91
0.415082,0.373000,-0.180000,-0.903000,-1.786000,4.427000,-1.405000,29.00
0.415503,0.367000,-0.179000,-0.903000,-2.290000,4.427000,-1.481000,29.00
0.415926,0.371000,-0.176000,-0.897000,-2.015000,4.840000,-1.374000,29.14
0.416349,0.372000,-0.180000,-0.906000,-2.031000,5.053000,-1.603000,29.05
0.416781,0.372000,-0.178000,-0.904000,-1.878000,4.992000,-1.710000,29.00
0.417204,0.373000,-0.168000,-0.900000,-2.031000,5.206000,-1.450000,29.00
0.417621,0.375000,-0.170000,-0.908000,-1.313000,4.977000,-1.542000,29.05
0.418047,0.369000,-0.180000,-0.897000,-1.206000,5.313000,-1.496000,29.05
0.418465,0.375000,-0.171000,-0.899000,-1.313000,5.527000,-1.450000,29.00
0.418882,0.371000,-0.178000,-0.910000,-1.328000,5.527000,-1.328000,28.95
0.419302,0.376000,-0.176000,-0.897000,-1.405000,5.664000,-1.252000,29.05
0.419726,0.376000,-0.174000,-0.907000,-0.992000,5.405000,-0.885000,29.09
0.420175,0.381000,-0.175000,-0.906000,-0.489000,5.344000,-0.931000,29.00
0.420715,0.374000,-0.173000,-0.897000,-0.366000,5.511000,-0.687000,28.95
0.421319,0.377000,-0.176000,-0.904000,0.092000,5.588000,-0.473000,29.05
0.421779,0.371000,-0.179000,-0.898000,0.519000,5.450000,-0.580000,29.00
0.422219,0.376000,-0.175000,-0.895000,0.580000,5.313000,-0.656000,29.00
0.422660,0.377000,-0.179000,-0.898000,0.321000,5.618000,-0.565000,29.05
0.423100,0.371000,-0.175000,-0.896000,0.351000,6.122000,-0.351000,29.05
0.423540,0.382000,-0.185000,-0.900000,0.076000,5.527000,-0.290000,28.91
0.423988,0.384000,-0.175000,-0.899000,1.252000,6.305000,-0.336000,29.00
0.424481,0.379000,-0.183000,-0.904000,0.809000,5.893000,-0.107000,29.05
0.424991,0.378000,-0.185000,-0.905000,0.916000,5.176000,-0.229000,29.05
0.425457,0.372000,-0.188000,-0.898000,0.443000,5.588000,-0.489000,29.00
0.425893,0.388000,-0.188000,-0.891000,-0.336000,6.214000,-0.565000,29.09
0.426306,0.384000,-0.184000,-0.899000,-0.962000,5.817000,-0.733000,28.95
0.426715,0.386000,-0.190000,-0.895000,-1.206000,5.145000,-0.824000,29.00
0.427129,0.385000,-0.196000,-0.897000,-1.908000,4.916000,-1.145000,29.00
0.427539,0.375000,-0.188000,-0.891000,-2.733000,5.145000,-1.450000,29.05
0.427952,0.383000,-0.188000,-0.897000,-3.206000,5.420000,-1.634000,29.05
0.428364,0.379000,-0.184000,-0.906000,-2.779000,4.947000,-1.725000,29.00
0.428769,0.381000,-0.178000,-0.898000,-3.084000,4.977000,-1.740000,29.00
0.429191,0.376000,-0.183000,-0.894000,-3.099000,5.374000,-1.847000,29.05
0.429601,0.383000,-0.173000,-0.900000,-3.221000,5.557000,-1.802000,28.95
0.430011,0.380000,-0.173000,-0.895000,-2.962000,5.527000,-2.046000,29.00
0.430422,0.378000,-0.181000,-0.895000,-3.221000,5.679000,-2.122000,29.00
0.430932,0.388000,-0.189000,-0.904000,-3.618000,5.863000,-2.443000,28.95
0.431491,0.388000,-0.184000,-0.894000,-3.786000,5.435000,-2.473000,29.00
0.431951,0.391000,-0.177000,-0.893000,-3.985000,5.176000,-2.565000,29.00
0.432396,0.386000,-0.178000,-0.889000,-3.954000,4.641000,-2.687000,29.09
0.432867,0.390000,-0.173000,-0.897000,-3.893000,4.550000,-2.718000,28.95
0.433303,0.388000,-0.174000,-0.901000,-3.939000,4.672000,-2.656000,29.05
0.433717,0.384000,-0.174000,-0.899000,-3.985000,4.351000,-2.718000,29.09
0.434131,0.390000,-0.177000,-0.902000,-4.168000,4.473000,-2.779000,29.05
0.434543,0.392000,-0.178000,-0.902000,-3.756000,4.504000,-2.733000,28.95
0.434954,0.393000,-0.170000,-0.906000,-3.924000,4.122000,-2.427000,29.00
0.435367,0.391000,-0.168000,-0.895000,-3.863000,3.618000,-2.366000,29.00
0.435780,0.395000,-0.168000,-0.897000,-3.282000,3.267000,-1.969000,29.05
0.436193,0.393000,-0.170000,-0.898000,-3.252000,3.252000,-1.954000,29.09
0.436604,0.389000,-0.166000,-0.897000,-3.481000,3.069000,-1.588000,29.09
0.437022,0.392000,-0.165000,-0.893000,-3.527000,3.115000,-1.710000,29.09
0.437431,0.386000,-0.175000,-0.895000,-3.450000,3.282000,-1.664000,29.05
0.437836,0.391000,-0.163000,-0.896000,-3.267000,3.802000,-1.695000,28.95
0.438250,0.387000,-0.161000,-0.896000,-3.008000,3.878000,-1.664000,29.00
0.438661,0.388000,-0.173000,-0.893000,-2.840000,3.573000,-1.664000,29.00
0.439082,0.391000,-0.162000,-0.899000,-2.931000,3.496000,-1.908000,29.05
0.439496,0.388000,-0.170000,-0.900000,-3.053000,3.511000,-1.374000,28.95
0.439909,0.392000,-0.166000,-0.899000,-2.901000,3.496000,-1.328000,29.00
0.440320,0.388000,-0.170000,-0.896000,-2.519000,2.855000,-0.931000,29.00
0.440856,0.391000,-0.162000,-0.898000,-2.229000,2.748000,-1.145000,28.95
0.441442,0.387000,-0.168000,-0.899000,-2.275000,3.008000,-0.687000,29.05
0.441952,0.389000,-0.175000,-0.894000,-2.656000,2.855000,-0.977000,29.09
0.442384,0.386000,-0.174000,-0.893000,-2.977000,2.931000,-1.130000,29.09
0.442794,0.384000,-0.168000,-0.893000,-3.557000,3.344000,-1.298000,29.05
0.443200,0.382000,-0.175000,-0.893000,-3.817000,3.084000,-1.603000,29.00
0.443613,0.391000,-0.177000,-0.891000,-4.412000,3.328000,-1.649000,29.00
0.444026,0.393000,-0.165000,-0.891000,-4.580000,2.916000,-1.710000,29.05
0.444440,0.389000,-0.159000,-0.897000,-4.397000,2.733000,-1.466000,29.05
0.444873,0.394000,-0.169000,-0.890000,-4.351000,2.580000,-1.588000,29.09
0.445286,0.388000,-0.165000,-0.892000,-4.336000,2.427000,-1.679000,29.00
0.445697,0.392000,-0.169000,-0.899000,-4.672000,2.748000,-1.832000,28.95
0.446107,0.383000,-0.171000,-0.897000,-4.748000,2.855000,-1.954000,29.05
0.446514,0.389000,-0.171000,-0.897000,-4.885000,3.008000,-1.893000,29.00
0.446929,0.387000,-0.162000,-0.904000,-4.595000,3.069000,-1.847000,29.00
0.447344,0.396000,-0.157000,-0.901000,-4.397000,3.298000,-1.771000,29.05
0.447758,0.395000,-0.163000,-0.904000,-4.153000,2.641000,-1.725000,29.00
0.448165,0.391000,-0.165000,-0.891000,-4.122000,2.427000,-1.496000,29.09
0.448576,0.392000,-0.166000,-0.904000,-4.275000,2.153000,-1.450000,29.00
0.448991,0.394000,-0.161000,-0.900000,-4.443000,2.031000,-1.176000,29.05
0.449409,0.385000,-0.162000,-0.892000,-4.015000,2.092000,-1.221000,29.05
0.449824,0.385000,-0.158000,-0.895000,-3.771000,2.092000,-1.420000,29.00
0.450272,0.386000,-0.166000,-0.905000,-3.695000,2.305000,-1.435000,29.00
0.450809,0.392000,-0.158000,-0.899000,-3.863000,2.229000,-1.511000,29.05
0.451387,0.388000,-0.158000,-0.891000,-3.634000,2.458000,-1.252000,29.05
0.451861,0.389000,-0.158000,-0.902000,-3.603000,2.015000,-1.466000,29.09
0.452302,0.400000,-0.164000,-0.909000,-3.527000,2.321000,-1.115000,29.05
0.452738,0.391000,-0.157000,-0.901000,-3.191000,2.107000,-1.069000,29.05
0.453179,0.393000,-0.160000,-0.904000,-2.962000,2.031000,-0.931000,29.09
0.453620,0.385000,-0.157000,-0.904000,-2.534000,2.122000,-0.947000,29.00
0.454105,0.388000,-0.155000,-0.901000,-2.305000,2.565000,-0.870000,28.95
0.454572,0.391000,-0.162000,-0.895000,-2.153000,2.901000,-1.084000,29.05
0.455017,0.388000,-0.152000,-0.904000,-1.893000,2.718000,-0.748000,29.00
0.455462,0.391000,-0.157000,-0.901000,-1.649000,2.672000,-0.687000,28.91
0.455898,0.392000,-0.154000,-0.900000,-1.756000,2.901000,-0.443000,29.14
0.456340,0.386000,-0.151000,-0.894000,-1.679000,2.885000,-0.565000,28.95
0.456779,0.391000,-0.157000,-0.906000,-1.542000,2.840000,-0.595000,29.00
0.457223,0.388000,-0.151000,-0.896000,-1.664000,2.733000,-0.534000,29.00
0.457665,0.391000,-0.151000,-0.898000,-1.588000,3.008000,-0.351000,29.14
0.458104,0.389000,-0.154000,-0.897000,-1.511000,2.855000,-0.397000,28.95
0.458587,0.387000,-0.157000,-0.903000,-1.435000,2.870000,-0.305000,29.09
0.459062,0.390000,-0.161000,-0.898000,-1.191000,2.885000,-0.351000,29.00
0.459488,0.390000,-0.160000,-0.904000,-1.130000,2.947000,-0.473000,29.05
0.459904,0.389000,-0.161000,-0.906000,-1.298000,2.885000,-0.458000,29.00
0.460319,0.392000,-0.161000,-0.900000,-1.267000,2.779000,-0.489000,29.00
0.460793,0.387000,-0.162000,-0.902000,-1.511000,2.656000,-0.489000,28.86
0.461325,0.390000,-0.162000,-0.891000,-1.649000,2.626000,-0.519000,29.05
0.461781,0.383000,-0.159000,-0.904000,-1.618000,2.840000,-0.748000,29.00
0.462223,0.387000,-0.160000,-0.900000,-1.649000,3.130000,-0.702000,29.00
0.462659,0.387000,-0.156000,-0.902000,-1.802000,2.870000,-0.534000,28.95
0.463091,0.390000,-0.159000,-0.897000,-1.847000,3.069000,-0.718000,28.95
0.463529,0.390000,-0.160000,-0.902000,-1.511000,3.008000,-0.611000,29.00
0.463971,0.390000,-0.159000,-0.899000,-1.573000,3.176000,-0.519000,29.00
0.464444,0.383000,-0.163000,-0.904000,-1.374000,3.115000,-0.672000,28.95
0.464911,0.385000,-0.158000,-0.899000,-1.481000,3.237000,-0.580000,29.00
0.465345,0.390000,-0.157000,-0.903000,-1.725000,3.145000,-0.534000,29.09
0.465782,0.390000,-0.163000,-0.904000,-1.710000,3.252000,-0.656000,29.09
0.466223,0.385000,-0.162000,-0.898000,-1.771000,3.084000,-0.580000,29.05
0.466662,0.384000,-0.146000,-0.907000,-1.725000,3.130000,-0.672000,29.05
0.467119,0.390000,-0.165000,-0.907000,-1.710000,3.115000,-0.611000,29.09
0.467557,0.390000,-0.151000,-0.897000,-1.466000,3.023000,-0.489000,29.00
0.467976,0.388000,-0.156000,-0.902000,-1.740000,2.962000,-0.611000,28.95
0.468393,0.391000,-0.164000,-0.898000,-1.573000,3.084000,-0.595000,28.95
0.468808,0.389000,-0.156000,-0.897000,-1.374000,3.099000,-0.565000,29.00
0.469304,0.393000,-0.161000,-0.896000,-1.618000,2.916000,-0.458000,29.00
0.469914,0.387000,-0.162000,-0.908000,-1.496000,2.947000,-0.550000,28.95
0.470370,0.391000,-0.163000,-0.894000,-1.924000,3.069000,-0.611000,29.05
0.470812,0.394000,-0.156000,-0.909000,-1.939000,3.069000,-0.580000,29.09
0.471246,0.392000,-0.160000,-0.907000,-1.924000,2.947000,-0.595000,29.00
0.471666,0.387000,-0.153000,-0.912000,-1.985000,2.794000,-0.489000,29.05
0.472080,0.390000,-0.157000,-0.903000,-1.664000,2.687000,-0.565000,29.00
0.472489,0.383000,-0.162000,-0.899000,-1.328000,2.870000,-0.519000,29.09
0.472903,0.385000,-0.162000,-0.910000,-1.481000,2.779000,-0.687000,29.00
0.473326,0.387000,-0.162000,-0.899000,-1.435000,2.702000,-0.702000,29.05
0.473740,0.382000,-0.152000,-0.902000,-1.618000,2.901000,-0.489000,28.95
0.474154,0.395000,-0.159000,-0.901000,-1.618000,2.916000,-0.550000,29.00
0.474565,0.389000,-0.161000,-0.909000,-1.374000,3.115000,-0.473000,29.09
0.474978,0.385000,-0.165000,-0.901000,-1.374000,2.901000,-0.458000,28.95
0.475392,0.389000,-0.160000,-0.905000,-1.405000,2.824000,-0.565000,29.05
0.475800,0.392000,-0.156000,-0.899000,-1.466000,2.656000,-0.519000,29.00
0.476215,0.379000,-0.154000,-0.902000,-1.511000,2.656000,-0.153000,29.09
0.476627,0.385000,-0.160000,-0.900000,-1.420000,2.458000,-0.214000,29.14
0.477039,0.389000,-0.157000,-0.903000,-1.634000,2.305000,-0.397000,29.09
0.477483,0.393000,-0.153000,-0.900000,-1.573000,2.336000,-0.519000,29.09
0.477913,0.386000,-0.154000,-0.911000,-1.847000,2.458000,-0.412000,28.95
0.478341,0.390000,-0.161000,-0.896000,-1.649000,2.260000,-0.595000,28.95
0.478759,0.386000,-0.160000,-0.901000,-1.664000,1.908000,-0.321000,29.09
0.479193,0.380000,-0.155000,-0.910000,-1.863000,2.122000,-0.275000,29.09
0.479606,0.379000,-0.157000,-0.894000,-2.031000,2.046000,-0.275000,29.05
0.480034,0.390000,-0.154000,-0.910000,-1.771000,1.710000,-0.198000,29.05
0.480449,0.387000,-0.154000,-0.907000,-1.954000,1.389000,-0.244000,29.00
0.480979,0.384000,-0.160000,-0.897000,-1.969000,1.450000,0.000000,29.09
0.481557,0.386000,-0.161000,-0.908000,-1.878000,1.084000,0.198000,29.05
0.482009,0.377000,-0.153000,-0.899000,-2.260000,1.359000,-0.092000,29.05
0.482449,0.375000,-0.165000,-0.903000,-2.198000,0.840000,-0.046000,29.00
0.482892,0.383000,-0.163000,-0.890000,-2.351000,1.710000,-0.290000,29.00
0.483328,0.378000,-0.164000,-0.901000,-2.260000,1.450000,-0.473000,28.95
0.483776,0.382000,-0.159000,-0.897000,-2.550000,1.282000,-0.351000,29.00
0.484214,0.380000,-0.163000,-0.912000,-2.366000,1.466000,-0.519000,29.09
0.484633,0.382000,-0.155000,-0.899000,-2.244000,1.756000,-0.458000,29.09
0.485040,0.377000,-0.154000,-0.911000,-2.229000,1.557000,-0.489000,29.05
0.485456,0.386000,-0.153000,-0.893000,-2.550000,1.863000,-0.092000,28.95
0.485869,0.380000,-0.168000,-0.903000,-1.969000,1.542000,-0.214000,29.09
0.486282,0.379000,-0.158000,-0.897000,-1.725000,1.527000,-0.168000,29.00
0.486690,0.374000,-0.157000,-0.898000,-1.832000,1.450000,-0.244000,28.95
0.487103,0.389000,-0.150000,-0.906000,-1.802000,1.496000,-0.336000,29.05
0.487514,0.383000,-0.164000,-0.898000,-1.817000,1.481000,-0.107000,29.00
0.487926,0.382000,-0.157000,-0.897000,-2.397000,1.359000,-0.198000,29.09
0.488335,0.384000,-0.163000,-0.901000,-2.260000,1.359000,-0.489000,28.95
0.488748,0.379000,-0.143000,-0.910000,-2.489000,1.466000,-0.382000,28.95
0.489167,0.379000,-0.162000,-0.899000,-2.351000,1.496000,-0.412000,29.00
0.489580,0.373000,-0.147000,-0.911000,-1.771000,1.985000,-0.504000,29.09
0.489991,0.385000,-0.164000,-0.902000,-1.908000,1.802000,-0.275000,28.95
0.490398,0.375000,-0.148000,-0.896000,-1.573000,1.817000,-0.336000,29.09
0.490905,0.371000,-0.147000,-0.904000,-1.527000,2.229000,-0.427000,29.00
0.491457,0.376000,-0.161000,-0.902000,-1.679000,2.092000,-0.275000,28.91
0.491924,0.376000,-0.160000,-0.899000,-1.634000,2.229000,-0.321000,28.95
0.492353,0.377000,-0.156000,-0.898000,-1.969000,2.137000,-0.321000,28.95
0.492768,0.377000,-0.165000,-0.909000,-1.908000,2.198000,-0.397000,29.09
0.493180,0.386000,-0.165000,-0.905000,-1.557000,2.290000,-0.611000,29.00
0.493594,0.379000,-0.150000,-0.913000,-2.076000,2.427000,-0.427000,29.05
0.494032,0.385000,-0.159000,-0.912000,-1.466000,1.985000,-0.626000,29.05
0.494450,0.377000,-0.157000,-0.908000,-1.466000,1.802000,-0.733000,29.00
0.494869,0.384000,-0.159000,-0.901000,-1.588000,2.137000,-0.366000,28.91
0.495386,0.385000,-0.146000,-0.905000,-1.435000,2.046000,-0.198000,29.05
0.495958,0.378000,-0.161000,-0.906000,-1.389000,2.076000,-0.366000,28.95
0.496410,0.378000,-0.153000,-0.908000,-1.359000,1.985000,-0.092000,29.09
0.496853,0.381000,-0.154000,-0.905000,-1.008000,2.168000,-0.153000,29.05
0.497294,0.375000,-0.164000,-0.898000,-1.160000,2.412000,-0.229000,29.05
0.497736,0.372000,-0.160000,-0.903000,-1.359000,2.473000,-0.198000,29.09
0.498184,0.384000,-0.158000,-0.903000,-0.550000,2.183000,-0.412000,29.00
0.498633,0.376000,-0.167000,-0.900000,-0.824000,1.878000,-0.336000,28.95
0.499134,0.379000,-0.159000,-0.908000,-1.069000,2.092000,-0.351000,29.05
0.499659,0.377000,-0.167000,-0.911000,-1.664000,2.183000,-0.504000,29.09
0.500116,0.377000,-0.156000,-0.908000,-2.122000,2.641000,-0.412000,29.00
0.500544,0.379000,-0.154000,-0.900000,-1.893000,2.275000,-0.336000,29.05
0.501043,0.373000,-0.154000,-0.903000,-1.740000,2.183000,-0.718000,29.05
0.501606,0.383000,-0.162000,-0.910000,-2.031000,2.061000,-0.321000,29.00
0.502044,0.383000,-0.160000,-0.899000,-2.229000,2.336000,-0.626000,28.91
0.502493,0.378000,-0.163000,-0.902000,-2.504000,2.595000,-0.809000,28.95
0.502940,0.380000,-0.163000,-0.900000,-2.901000,2.550000,-0.794000,29.14
0.503382,0.376000,-0.148000,-0.909000,-2.595000,2.336000,-0.840000,29.09
0.503817,0.378000,-0.158000,-0.905000,-2.885000,2.366000,-0.656000,29.00
0.504312,0.381000,-0.162000,-0.894000,-2.641000,1.878000,-0.427000,29.05
0.504783,0.380000,-0.154000,-0.908000,-2.076000,1.588000,-0.656000,28.95
0.505239,0.374000,-0.155000,-0.913000,-2.153000,1.511000,-0.748000,29.00
0.505674,0.376000,-0.149000,-0.901000,-2.214000,2.183000,-0.534000,29.00
0.506118,0.376000,-0.150000,-0.912000,-2.031000,1.878000,-0.275000,28.95
0.506561,0.380000,-0.153000,-0.902000,-2.214000,1.649000,-0.336000,29.05
0.507001,0.381000,-0.156000,-0.906000,-2.198000,1.511000,-0.061000,29.09
0.507471,0.377000,-0.153000,-0.906000,-1.985000,1.130000,-0.168000,29.00
0.507904,0.384000,-0.153000,-0.916000,-1.725000,1.023000,0.427000,29.05
0.508329,0.394000,-0.139000,-0.928000,-0.382000,0.122000,0.641000,29.05
0.508764,0.398000,-0.162000,-0.948000,0.290000,-0.168000,1.435000,28.91
0.509279,0.395000,-0.132000,-0.944000,3.191000,-3.023000,3.023000,29.00
0.509786,0.416000,-0.117000,-0.927000,5.527000,-3.023000,5.496000,28.95
0.510209,0.420000,-0.098000,-0.943000,11.176000,-3.374000,8.198000,29.00
0.510629,0.422000,-0.087000,-0.948000,19.298000,-4.229000,11.450000,29.00
0.511106,0.401000,-0.100000,-0.977000,27.588000,-1.359000,14.061000,29.00
0.511609,0.422000,-0.088000,-0.981000,40.000000,1.435000,16.885000,29.05
0.512060,0.378000,-0.138000,-0.979000,47.847000,-3.802000,18.458000,28.95
0.512509,0.386000,-0.258000,-0.953000,54.962000,-3.893000,17.450000,29.00
0.512959,0.413000,-0.200000,-0.989000,60.031000,-0.214000,17.908000,28.91
0.513406,0.427000,-0.160000,-1.037000,64.214000,2.504000,19.298000,29.05
0.513852,0.415000,-0.221000,-1.008000,75.313000,8.962000,19.298000,29.05
0.514332,0.472000,-0.228000,-1.041000,89.344000,0.947000,23.023000,29.00
0.514793,0.486000,-0.209000,-1.089000,104.748000,-0.137000,24.489000,29.00
0.515228,0.298000,-0.216000,-0.847000,120.015000,-12.427000,25.802000,29.05
0.515667,0.237000,-0.344000,-0.679000,96.107000,-12.611000,25.053000,28.95
0.516116,0.252000,-0.334000,-0.776000,70.076000,10.290000,17.496000,29.00
0.516550,0.332000,-0.377000,-0.811000,58.962000,0.397000,16.672000,29.00
0.516966,0.312000,-0.405000,-0.726000,52.397000,0.550000,14.687000,29.05
0.517383,0.301000,-0.395000,-0.721000,44.763000,-1.893000,12.000000,29.00
0.517798,0.267000,-0.403000,-0.681000,30.611000,-4.687000,8.931000,29.00
0.518212,0.253000,-0.422000,-0.654000,12.214000,-0.031000,4.840000,29.09
0.518617,0.267000,-0.434000,-0.708000,0.137000,1.130000,0.595000,29.05
0.519036,0.306000,-0.428000,-0.769000,-10.000000,6.198000,-2.687000,28.95
0.519765,0.367000,-0.423000,-0.819000,-17.588000,8.061000,-4.321000,29.00
0.520303,0.377000,-0.419000,-0.818000,-24.031000,4.565000,-4.519000,29.00
0.520783,0.358000,-0.487000,-0.777000,-33.435000,0.611000,-6.153000,28.95
0.521237,0.282000,-0.516000,-0.675000,-48.122000,-2.519000,-9.298000,28.95
0.521689,0.187000,-0.599000,-0.643000,-66.763000,0.061000,-15.176000,29.09
0.529606,0.069000,-0.590000,-0.597000,-84.382000,5.817000,-24.580000,29.00
0.539678,0.135000,-0.713000,-0.620000,-107.282000,17.527000,-36.412000,28.95
0.549680,0.042000,-0.696000,-0.660000,-116.992000,27.634000,-44.244000,29.05
0.559628,-0.007000,-0.977000,-0.787000,-114.000000,59.786000,-39.496000,29.09
0.569766,0.251000,-1.640000,-1.025000,-136.336000,84.718000,-18.000000,29.00
0.579718,0.415000,-1.387000,-1.999000,-42.733000,135.344000,-22.947000,29.05
0.591947,-0.041000,-2.208000,-0.950000,-43.908000,85.282000,13.481000,28.91
0.600347,-0.151000,-1.656000,-1.100000,-51.985000,69.618000,40.656000,29.09
0.613032,-0.518000,-1.063000,-1.236000,-21.725000,76.260000,48.977000,29.00
0.622899,-0.556000,-0.997000,-1.155000,4.015000,71.115000,45.374000,29.05
0.629733,-0.619000,-0.888000,-1.103000,3.832000,57.344000,36.763000,29.05
0.639688,-0.677000,-0.587000,-1.125000,6.565000,43.176000,19.802000,29.00
0.649727,-0.689000,-0.428000,-1.129000,15.053000,25.725000,-0.519000,29.09
0.659704,-0.610000,-0.431000,-1.130000,21.664000,5.237000,-20.305000,28.95
0.669676,-0.464000,-0.467000,-1.196000,29.160000,-11.420000,-32.794000,28.95
0.679687,-0.275000,-0.582000,-1.275000,37.237000,-28.916000,-35.328000,29.00
0.689713,-0.125000,-0.646000,-1.225000,45.420000,-41.679000,-28.794000,29.09
0.699709,0.011000,-0.634000,-1.209000,54.641000,-53.267000,-15.878000,29.05
0.709739,0.114000,-0.609000,-1.126000,60.305000,-63.573000,2.214000,28.95
0.719727,0.146000,-0.557000,-0.988000,58.366000,-64.809000,21.573000,29.09
0.729818,0.177000,-0.462000,-0.931000,55.221000,-64.611000,40.473000,29.09
0.739759,0.207000,-0.389000,-0.888000,48.122000,-52.947000,58.626000,28.95
0.749744,0.257000,-0.286000,-0.865000,39.374000,-41.954000,75.084000,29.00
0.759780,0.278000,-0.145000,-0.871000,29.481000,-30.412000,88.107000,29.00
0.769773,0.302000,0.023000,-0.948000,22.412000,-21.344000,94.794000,29.05
0.779757,0.294000,0.136000,-0.981000,14.870000,-18.015000,95.084000,29.05
0.790431,0.322000,0.195000,-1.016000,8.870000,-17.985000,89.298000,29.00
0.799715,0.415000,0.235000,-1.136000,4.061000,-21.542000,80.015000,29.00
0.809717,0.527000,0.246000,-1.249000,2.519000,-29.695000,70.916000,28.95
0.819703,0.602000,0.228000,-1.211000,3.542000,-35.084000,62.412000,29.05
0.829791,0.693000,0.209000,-1.146000,0.229000,-51.466000,56.916000,29.00
0.839734,0.660000,0.252000,-0.896000,3.527000,-64.229000,49.206000,29.00
0.849748,0.683000,0.293000,-0.772000,3.557000,-64.092000,39.420000,28.95
0.859755,0.725000,0.336000,-0.691000,1.084000,-58.489000,30.595000,29.00
0.869853,0.803000,0.347000,-0.674000,-4.855000,-39.481000,23.237000,28.91
0.879941,0.910000,0.333000,-0.730000,-9.221000,-26.916000,16.916000,29.09
0.889890,0.990000,0.384000,-0.785000,-10.992000,-21.832000,11.679000,28.95
0.899830,1.028000,0.439000,-0.765000,-14.870000,-22.611000,5.954000,29.05
0.910000,0.986000,0.484000,-0.685000,-21.221000,-25.191000,-5.069000,29.00
0.919944,1.003000,0.503000,-0.695000,-24.641000,-24.702000,-19.374000,29.00
0.929986,1.104000,0.468000,-0.790000,-24.718000,-23.313000,-31.267000,29.05
0.939997,1.160000,0.393000,-0.789000,-21.359000,-25.038000,-38.855000,29.09
0.950019,1.159000,0.307000,-0.714000,-22.748000,-27.359000,-44.550000,29.00
0.960099,1.100000,0.260000,-0.555000,-30.473000,-20.092000,-49.969000,29.05
0.970159,1.101000,0.151000,-0.510000,-31.191000,-20.122000,-53.405000,29.09
0.980335,1.134000,-0.012000,-0.546000,-36.092000,-15.313000,-51.893000,29.00
0.990210,1.242000,0.441000,-0.573000,-2.992000,42.794000,-68.260000,29.00
1.000216,1.249000,-0.165000,-0.141000,25.130000,57.664000,-63.634000,29.14
1.010005,0.872000,-1.216000,-0.594000,28.656000,39.420000,-47.069000,29.05
1.019960,0.930000,-1.239000,-1.574000,12.107000,27.511000,-24.504000,29.00
1.029783,0.359000,-1.351000,-0.573000,4.718000,26.702000,-1.908000,29.00
1.039676,0.270000,-1.095000,-0.191000,-7.542000,3.908000,4.397000,28.95
1.049642,0.402000,-0.827000,-0.757000,-16.794000,43.756000,4.412000,29.05
1.059652,0.618000,0.217000,-1.467000,-15.282000,51.359000,1.710000,29.00
1.069681,0.206000,0.796000,-1.546000,-21.740000,94.947000,-19.939000,28.91
1.079723,0.004000,0.499000,-1.424000,22.198000,7.664000,-17.160000,28.95
1.089756,-0.087000,-0.185000,-0.879000,43.420000,-10.595000,-17.115000,29.05
1.099704,-0.017000,-0.495000,-0.722000,52.473000,37.282000,-25.374000,29.00
1.109730,0.310000,-0.373000,-0.807000,33.969000,61.344000,-23.557000,29.00
1.119713,0.451000,-0.264000,-1.060000,23.328000,48.382000,-23.023000,29.05
1.129824,0.454000,-0.247000,-1.040000,22.870000,53.664000,-19.282000,29.00
1.139655,0.444000,-0.433000,-0.790000,5.649000,61.802000,-16.214000,29.00
1.149655,0.577000,-0.545000,-0.851000,19.252000,30.321000,-4.550000,29.00
1.159641,0.438000,-0.367000,-0.969000,13.069000,8.611000,-3.466000,29.05
1.169691,0.374000,-0.391000,-0.832000,-2.504000,14.305000,-4.275000,28.95
1.179718,0.298000,-0.549000,-0.589000,-14.397000,9.802000,-7.084000,29.09
1.189734,0.368000,-0.608000,-0.728000,-33.481000,16.489000,-10.962000,29.05
1.199672,0.331000,-0.329000,-0.789000,-47.695000,21.817000,-14.183000,28.95
1.209750,0.222000,-0.262000,-0.777000,-59.649000,18.137000,-16.702000,29.00
1.219742,0.304000,-0.356000,-0.783000,-75.466000,20.626000,-18.855000,29.00
1.229773,0.391000,-0.366000,-0.948000,-79.298000,22.702000,-18.382000,28.95
1.239781,0.384000,-0.273000,-1.044000,-68.153000,21.939000,-18.351000,29.05
1.249833,0.387000,-0.328000,-0.908000,-55.115000,27.603000,-17.786000,29.09
1.259860,0.424000,-0.270000,-1.061000,-43.237000,30.504000,-16.687000,29.00
1.269867,0.359000,-0.288000,-0.857000,-30.214000,21.145000,-17.710000,29.05
1.279857,0.449000,-0.341000,-0.835000,-39.267000,25.664000,-19.588000,28.95
1.289930,-0.416000,0.002000,-0.872000,-48.046000,-34.153000,-75.344000,28.91
1.299888,0.258000,-0.261000,-0.272000,-7.985000,-42.061000,-23.405000,29.09
1.310035,0.469000,-0.278000,-1.204000,-33.557000,20.321000,-26.198000,29.05
1.320039,0.423000,-0.302000,-0.821000,-40.534000,26.534000,-28.046000,29.05
1.329924,0.395000,-0.245000,-0.906000,-43.878000,23.863000,-27.908000,29.09
1.340141,0.395000,-0.197000,-0.936000,-39.695000,26.779000,-29.191000,29.00
1.350149,0.362000,-0.231000,-0.878000,-42.366000,32.489000,-31.053000,29.05
1.360135,0.388000,-0.194000,-0.899000,-42.244000,42.992000,-32.840000,28.95
1.370180,0.386000,-0.117000,-1.024000,-38.595000,46.947000,-36.397000,29.00
1.380121,0.562000,-0.402000,-0.933000,-44.351000,64.260000,-34.870000,29.00
1.390138,0.435000,-0.190000,-0.921000,-31.450000,67.405000,-40.107000,29.05
1.400263,0.424000,-0.208000,-0.781000,-38.031000,92.550000,-31.527000,29.00
1.410111,0.544000,-0.218000,-1.062000,-33.420000,93.649000,-27.878000,29.00
1.420142,0.348000,-0.078000,-0.860000,-51.878000,134.641000,-29.679000,29.09
1.430231,0.441000,-0.162000,-0.843000,-58.733000,151.069000,-29.847000,28.95
1.440279,0.378000,-0.112000,-0.860000,-67.771000,170.656000,-31.573000,29.05
1.450273,0.345000,-0.015000,-0.928000,-68.763000,182.641000,-39.817000,28.91
1.460289,0.457000,-0.054000,-0.882000,-66.061000,197.115000,-40.855000,28.91
1.470333,0.470000,-0.006000,-0.841000,-55.573000,208.015000,-42.122000,28.95
1.480062,0.466000,-0.084000,-0.835000,-61.649000,232.931000,-46.916000,28.95
1.490147,0.563000,-0.076000,-0.831000,-62.779000,239.405000,-58.366000,29.00
1.500456,0.597000,-0.100000,-0.867000,-66.885000,258.809000,-65.664000,28.95
1.510243,0.683000,-0.294000,-0.876000,-59.786000,258.382000,-75.145000,28.95
1.520367,1.006000,-0.262000,-0.802000,-2.870000,204.473000,-8.412000,29.00
1.530399,0.947000,-0.334000,-1.030000,22.550000,229.634000,3.634000,29.00
1.540220,0.933000,-0.313000,-1.276000,35.725000,298.809000,-23.832000,28.95
1.550422,1.203000,-0.266000,-1.522000,63.924000,303.115000,-82.122000,29.05
1.560355,1.455000,-0.410000,-1.873000,65.130000,335.466000,-129.145000,29.09
1.570483,1.096000,-0.173000,-1.570000,36.672000,330.260000,-173.893000,29.00
1.580222,1.354000,-0.334000,-2.049000,-0.076000,326.015000,-220.611000,29.05
1.590460,1.139000,-0.588000,-3.182000,-31.939000,379.374000,-156.641000,29.05
1.600379,0.813000,-0.886000,-2.419000,57.863000,252.809000,-141.969000,29.00
1.610391,-0.331000,-4.000000,-2.830000,72.824000,69.206000,-58.580000,29.00
1.620381,1.181000,-4.000000,-3.425000,-108.702000,-52.214000,82.656000,28.95
1.630386,-1.478000,-2.047000,-1.889000,-208.397000,-237.771000,96.702000,28.95
1.640489,-1.494000,-0.217000,-1.373000,-211.389000,-276.397000,81.023000,29.00
1.650476,-1.438000,0.380000,-2.131000,-106.305000,-287.008000,20.260000,28.91
1.660409,-0.990000,-0.107000,-1.955000,-38.977000,-222.840000,-51.557000,28.95
1.670333,-0.642000,-0.790000,-1.532000,-12.046000,-224.061000,-90.290000,29.09
1.680542,-0.189000,-1.081000,-1.463000,-7.115000,-290.061000,-104.718000,29.00
1.690221,0.198000,-1.013000,-1.424000,-33.084000,-291.389000,-108.122000,28.91
1.700458,0.418000,-0.829000,-1.317000,-2.336000,-342.427000,-98.214000,29.05
1.710292,0.646000,-0.790000,-1.004000,32.015000,-311.313000,-92.443000,28.95
1.720196,0.757000,-0.852000,-0.845000,61.191000,-283.878000,-68.962000,29.00
1.730093,0.860000,-1.025000,-0.696000,59.450000,-250.565000,-41.298000,28.91
1.740366,1.111000,-0.992000,-0.985000,90.412000,-284.519000,-5.450000,29.05
1.750338,1.153000,-0.900000,-1.003000,92.504000,-280.885000,27.878000,29.00
1.760374,1.122000,-0.774000,-0.990000,93.573000,-252.595000,57.450000,29.00
1.770293,1.092000,-0.620000,-0.886000,99.695000,-228.962000,81.435000,29.05
1.780296,1.053000,-0.447000,-0.853000,109.099000,-205.221000,100.198000,28.91
1.790299,1.019000,-0.297000,-0.900000,120.015000,-181.573000,113.496000,29.00
1.800452,1.049000,-0.265000,-1.014000,124.870000,-161.786000,120.611000,28.91
1.810253,1.223000,-0.296000,-1.094000,127.252000,-145.527000,124.733000,29.14
1.820350,1.329000,-0.283000,-1.125000,128.290000,-142.092000,129.145000,29.05
1.830260,1.408000,-0.276000,-1.034000,130.183000,-144.916000,133.481000,29.09
1.840387,1.496000,-0.274000,-0.946000,135.603000,-144.824000,137.863000,29.00
1.850350,1.566000,-0.232000,-0.846000,140.122000,-130.168000,141.344000,29.05
1.860403,1.608000,-0.153000,-0.789000,146.519000,-105.130000,145.496000,29.05
1.870202,1.610000,0.033000,-0.736000,156.656000,-74.626000,146.321000,29.00
1.880137,1.621000,0.188000,-0.736000,160.366000,-44.168000,145.573000,29.00
1.890465,1.705000,0.347000,-0.990000,163.527000,-20.595000,140.595000,28.95
1.900217,1.771000,0.548000,-1.159000,163.511000,-17.649000,131.802000,28.95
1.910410,1.775000,0.757000,-1.265000,154.809000,-30.977000,116.092000,29.00
1.920513,1.705000,0.981000,-1.250000,147.252000,-57.863000,93.832000,28.91
1.930402,1.682000,1.144000,-1.199000,148.672000,-85.450000,65.267000,28.95
1.940397,1.606000,1.212000,-1.032000,148.122000,-114.015000,34.840000,29.00
1.950290,1.684000,1.069000,-0.756000,137.603000,-106.779000,14.824000,29.00
1.960326,1.748000,1.018000,-0.605000,133.221000,-102.656000,3.908000,29.05
1.970284,1.644000,0.937000,-0.341000,97.130000,-84.565000,9.023000,29.05
1.980183,1.745000,0.842000,-0.001000,73.573000,-65.374000,21.725000,29.09
1.990373,1.396000,0.948000,-0.438000,42.656000,-58.992000,34.198000,29.00
2.000349,1.587000,0.960000,-0.325000,32.901000,-20.412000,50.153000,29.05
2.010295,2.049000,1.208000,-0.445000,-69.466000,8.290000,50.046000,28.95
2.020192,1.775000,1.485000,0.438000,-136.702000,126.992000,40.687000,29.09
2.029984,2.834000,2.362000,0.525000,-84.733000,35.313000,26.718000,29.00
2.039863,0.514000,1.199000,-0.596000,78.870000,-14.092000,-12.656000,28.95
2.049839,0.723000,0.604000,-2.883000,-117.221000,136.870000,-17.771000,29.00
2.059811,-0.604000,-0.195000,-3.155000,-33.618000,19.771000,-52.198000,29.00
2.069866,-0.234000,-0.370000,-1.174000,-3.756000,37.023000,-78.183000,29.00
2.079887,0.490000,-0.308000,-0.374000,0.061000,134.947000,-92.275000,28.95
2.089892,1.051000,-0.262000,-1.261000,-17.863000,148.000000,-68.229000,28.95
2.099855,0.498000,0.113000,-1.642000,-9.481000,81.328000,-59.573000,29.09
2.109894,0.023000,0.311000,-1.247000,-2.534000,70.031000,-76.122000,29.00
2.119934,0.630000,-0.324000,-1.348000,-8.550000,61.420000,-75.634000,28.95
2.130005,1.014000,-0.854000,-0.788000,-5.221000,28.198000,-48.092000,29.05
2.140061,0.923000,-0.964000,-0.984000,-16.931000,21.282000,-38.580000,28.91
2.150096,0.688000,-0.535000,-1.079000,-30.550000,36.947000,-28.702000,28.91
2.160112,0.560000,-0.386000,-1.015000,-38.290000,32.473000,-26.489000,29.05
2.170121,0.673000,-0.571000,-0.864000,-52.076000,20.046000,-18.092000,29.05
2.180130,0.483000,-0.529000,-0.755000,-61.038000,2.992000,-11.557000,29.00
2.189928,0.259000,-0.392000,-0.770000,-68.702000,-11.740000,-11.435000,29.00
2.199845,0.252000,-0.378000,-0.838000,-67.756000,-1.176000,-16.397000,28.95
2.209842,0.327000,-0.361000,-1.064000,-98.672000,5.847000,-13.542000,29.09
2.219981,0.270000,-0.254000,-1.110000,-73.893000,-30.198000,-14.626000,29.00
2.230012,0.502000,-0.242000,-0.975000,-79.481000,8.366000,-18.137000,29.14
2.239939,0.386000,-0.323000,-1.007000,-64.504000,25.542000,-19.557000,29.05
2.250079,0.417000,-0.262000,-0.989000,-55.725000,34.702000,-19.420000,28.91
2.259835,0.435000,-0.312000,-0.819000,-61.206000,61.908000,-21.542000,29.00
2.270009,0.533000,-0.307000,-1.028000,-49.237000,48.427000,-21.176000,29.05
2.279839,0.447000,-0.312000,-0.846000,-41.847000,39.802000,-21.496000,29.05
2.289655,0.411000,-0.280000,-0.863000,-36.947000,28.931000,-21.634000,29.09
2.299634,0.435000,-0.274000,-0.863000,-38.779000,20.947000,-21.344000,29.00
2.309965,0.387000,-0.265000,-0.862000,-40.504000,13.374000,-22.153000,28.95
2.319965,0.394000,-0.187000,-0.975000,-39.878000,14.229000,-23.588000,29.00
2.329674,0.391000,-0.199000,-0.939000,-35.802000,20.473000,-23.817000,29.00
2.339836,0.367000,-0.162000,-0.868000,-36.321000,21.527000,-23.802000,28.91
2.349650,0.380000,-0.170000,-0.907000,-35.191000,23.756000,-22.611000,29.05
2.359767,0.374000,-0.147000,-0.885000,-34.305000,29.069000,-20.504000,29.05
2.370243,0.407000,-0.177000,-0.866000,-33.756000,33.939000,-19.435000,29.00
2.380111,0.416000,-0.204000,-0.894000,-45.008000,48.489000,-18.947000,29.00
2.389635,0.105000,0.242000,-1.074000,-30.046000,26.977000,-33.481000,29.14
2.399662,0.393000,-0.161000,-0.936000,-30.427000,41.817000,-28.611000,28.86
2.409700,0.403000,-0.139000,-0.896000,-34.076000,42.336000,-28.504000,29.00
2.419884,0.443000,-0.223000,-0.840000,-35.435000,61.038000,-28.687000,29.00
2.429672,0.429000,-0.235000,-0.875000,-36.351000,71.679000,-31.130000,29.05
2.439641,0.383000,-0.296000,-0.917000,-44.565000,92.397000,-33.939000,29.05
2.450513,0.692000,-0.199000,-1.042000,19.206000,48.779000,-32.229000,29.00
2.460133,0.334000,-0.224000,-0.433000,-77.939000,195.435000,-39.420000,29.09
2.471709,0.380000,-0.160000,-0.775000,-76.779000,175.160000,-45.527000,28.95
2.479633,0.393000,-0.056000,-0.931000,-83.405000,176.290000,-48.962000,29.00
2.495561,0.430000,0.009000,-0.879000,-85.389000,208.519000,-50.198000,29.00
2.504045,0.473000,0.005000,-0.920000,-53.542000,189.725000,-45.695000,29.05
2.514051,0.413000,0.002000,-0.859000,-50.840000,224.336000,-46.885000,29.05
2.519783,0.480000,-0.012000,-0.853000,-60.779000,246.076000,-56.275000,29.00
2.529871,0.595000,-0.087000,-0.910000,-63.634000,266.397000,-70.122000,28.91
2.539986,0.489000,-0.153000,-1.282000,-65.908000,202.397000,-88.366000,28.95
2.550586,1.260000,-0.306000,-0.890000,-52.473000,253.817000,13.832000,28.95
2.560089,1.003000,-0.332000,-1.160000,-52.611000,282.153000,6.763000,29.09
2.570507,1.054000,-0.431000,-1.564000,-2.611000,312.244000,-54.550000,29.00
2.580468,1.224000,-0.437000,-1.912000,66.137000,374.779000,-86.031000,28.95
2.590157,1.659000,-0.574000,-2.489000,90.473000,372.550000,-159.450000,28.91
2.600290,1.549000,-0.238000,-1.975000,41.145000,401.557000,-222.458000,29.09
2.616306,1.331000,-0.615000,-2.367000,21.450000,389.588000,-299.450000,29.00
2.622072,0.672000,-0.333000,-3.789000,-81.679000,454.229000,-212.198000,29.05
2.632443,0.537000,-1.257000,-2.550000,37.786000,238.290000,-160.702000,29.05
2.639850,-1.217000,-4.000000,-2.747000,98.137000,19.221000,-49.405000,28.91
2.649813,1.538000,-3.582000,-4.000000,-44.794000,-162.397000,52.947000,28.91
2.660152,-1.288000,-2.481000,-1.533000,-113.939000,-304.458000,110.397000,28.95
2.669799,-1.217000,-0.971000,-1.255000,-90.779000,-186.962000,102.611000,28.95
2.683000,-1.005000,-0.204000,-2.119000,-34.916000,-204.901000,69.573000,28.91
2.690904,-0.689000,-0.353000,-1.992000,1.008000,-198.916000,21.802000,29.00
2.699793,-0.347000,-0.691000,-1.817000,-5.115000,-196.534000,-13.817000,29.05
2.711563,-0.050000,-0.631000,-1.754000,0.824000,-273.206000,-41.496000,28.95
2.721237,0.134000,-0.400000,-1.487000,-3.237000,-308.351000,-70.534000,28.91
2.732260,0.300000,-0.244000,-1.261000,28.947000,-352.397000,-85.405000,28.91
2.740548,0.489000,-0.185000,-1.002000,78.351000,-368.595000,-88.733000,29.05
2.749707,0.613000,-0.324000,-0.934000,121.282000,-364.031000,-90.290000,29.00
2.767297,0.838000,-0.590000,-0.770000,145.969000,-325.053000,-70.305000,29.00
2.769739,0.987000,-0.806000,-0.713000,149.511000,-285.557000,-39.954000,29.00
2.779700,1.054000,-0.877000,-0.724000,146.321000,-261.084000,-0.901000,29.05
2.789626,1.029000,-0.792000,-0.745000,143.863000,-235.084000,37.893000,28.95
2.799670,1.028000,-0.619000,-0.878000,150.351000,-213.038000,74.504000,29.00
2.809670,1.084000,-0.476000,-1.067000,163.603000,-191.893000,104.901000,28.91
2.831904,1.206000,-0.369000,-1.181000,171.939000,-167.771000,124.992000,29.05
2.832505,1.218000,-0.238000,-1.363000,162.809000,-145.969000,136.290000,29.05
2.839661,1.187000,-0.033000,-1.424000,157.954000,-145.130000,142.672000,29.00
2.849782,1.289000,0.170000,-1.493000,170.855000,-172.962000,145.145000,29.00
2.859667,1.266000,0.355000,-1.468000,167.466000,-172.916000,145.344000,28.95
2.869981,1.298000,0.535000,-1.438000,180.611000,-174.000000,140.031000,29.00
2.880666,1.324000,0.666000,-1.417000,187.282000,-169.832000,129.740000,28.91
2.891797,1.425000,0.763000,-1.426000,183.160000,-148.489000,113.832000,29.05
2.899712,1.615000,0.855000,-1.497000,175.924000,-133.573000,94.504000,28.95
2.910267,1.846000,0.984000,-1.625000,173.389000,-140.977000,79.298000,29.09
2.920112,2.020000,1.034000,-1.531000,172.534000,-153.924000,72.015000,29.00
2.930012,2.083000,1.060000,-1.295000,171.527000,-172.153000,66.870000,28.95
2.939932,2.124000,1.012000,-0.919000,162.214000,-162.748000,62.962000,28.95
2.950042,2.165000,1.022000,-0.573000,132.901000,-139.649000,68.260000,29.00
2.960075,2.201000,1.031000,-0.304000,103.206000,-108.351000,74.595000,29.00
2.970167,2.281000,1.094000,-0.178000,94.336000,-90.458000,82.550000,28.95
2.979834,2.284000,1.199000,-0.062000,99.481000,-64.748000,84.122000,28.95
2.990094,2.207000,1.253000,0.022000,46.901000,-6.336000,91.786000,29.09
3.000156,2.218000,1.348000,-0.047000,46.397000,14.656000,96.382000,29.00
3.010158,2.332000,1.421000,0.142000,1.771000,76.611000,77.985000,28.95
3.020108,2.299000,1.539000,0.774000,-48.626000,126.046000,43.740000,28.91
3.030249,2.331000,2.300000,1.427000,-166.336000,174.687000,-15.802000,29.00
3.040026,0.947000,0.665000,-0.708000,-20.382000,72.977000,-16.824000,28.91
3.049921,0.949000,-0.330000,-3.114000,-64.122000,14.794000,-13.176000,28.95
3.059933,-0.581000,-0.677000,-1.838000,-68.519000,16.779000,-34.366000,28.95
3.070212,-1.262000,-0.837000,0.373000,-100.000000,109.527000,-74.397000,29.00
3.080317,0.058000,-0.012000,-0.029000,-44.595000,131.160000,-72.779000,28.91
3.090305,0.507000,0.361000,-1.357000,-43.527000,144.565000,-68.763000,29.05
3.099986,0.228000,0.613000,-1.948000,-39.695000,143.008000,-89.069000,29.05
3.109952,0.245000,0.479000,-1.635000,-21.313000,150.687000,-106.519000,29.00
3.120323,0.725000,-0.108000,-1.535000,-0.443000,142.214000,-100.992000,29.00
3.130286,0.970000,-0.609000,-1.247000,-4.794000,109.435000,-84.122000,28.95
3.140100,0.981000,-0.812000,-0.820000,-21.832000,94.168000,-65.298000,28.86
3.150281,1.121000,-0.827000,-1.035000,-33.099000,71.710000,-53.206000,29.00
3.160251,0.799000,-0.543000,-0.860000,-55.206000,54.122000,-37.130000,29.00
3.170186,0.836000,-0.570000,-1.522000,-73.084000,48.992000,-32.962000,29.05
3.180316,0.689000,-0.538000,-0.884000,-72.031000,3.450000,-25.985000,29.00
3.190261,0.464000,-0.509000,-0.780000,-85.405000,-24.366000,-21.557000,29.00
3.200246,0.405000,-0.526000,-0.820000,-104.260000,-29.756000,-22.122000,29.00
3.210285,0.373000,-0.550000,-0.895000,-117.878000,-10.840000,-27.664000,28.95
3.220138,0.433000,-0.346000,-1.096000,-114.748000,-0.305000,-28.076000,29.05
3.230051,0.371000,-0.184000,-1.117000,-99.191000,-1.023000,-27.618000,29.00
3.240184,0.419000,-0.229000,-0.982000,-83.176000,10.382000,-27.389000,29.09
3.250316,0.444000,-0.213000,-1.109000,-79.695000,10.626000,-23.496000,28.95
3.260175,0.363000,-0.167000,-0.963000,-62.366000,-0.733000,-21.191000,28.95
3.270045,0.428000,-0.292000,-0.915000,-51.878000,-3.053000,-21.649000,28.91
3.280200,0.417000,-0.278000,-0.888000,-53.191000,3.237000,-25.588000,28.91
3.290066,0.360000,-0.216000,-0.845000,-54.992000,8.885000,-28.473000,29.05
3.300109,0.415000,-0.192000,-0.876000,-54.748000,9.145000,-28.885000,28.95
3.310159,0.380000,-0.188000,-0.896000,-50.824000,2.137000,-28.672000,29.00
3.319979,0.360000,-0.179000,-0.910000,-45.985000,-1.527000,-29.237000,28.91
3.329954,0.351000,-0.160000,-0.905000,-39.206000,4.931000,-29.847000,29.05
3.340076,0.358000,-0.124000,-0.941000,-35.573000,11.802000,-29.344000,28.91
3.350008,0.376000,-0.102000,-0.931000,-30.794000,18.702000,-27.985000,29.00
3.360221,0.378000,-0.125000,-0.916000,-29.053000,23.252000,-26.595000,28.91
3.370050,0.373000,-0.137000,-0.899000,-27.374000,26.397000,-26.412000,29.05
3.380057,0.342000,-0.095000,-0.935000,-27.130000,31.313000,-24.290000,29.09
3.390091,0.389000,-0.149000,-0.901000,-26.672000,32.702000,-24.672000,29.00
3.400060,0.404000,-0.099000,-0.908000,-26.092000,35.740000,-26.458000,29.05
3.410065,0.293000,0.119000,-1.078000,-21.481000,27.802000,-37.282000,29.05
3.420037,0.349000,-0.080000,-0.962000,-31.557000,28.366000,-27.328000,29.00
3.430174,0.376000,-0.201000,-0.773000,-39.786000,55.084000,-27.328000,28.91
3.439974,0.355000,-0.117000,-1.090000,-43.634000,57.802000,-26.809000,28.95
3.449981,0.348000,-0.073000,-0.961000,-53.832000,81.939000,-24.641000,28.95
3.460085,0.362000,-0.116000,-0.970000,-51.832000,87.771000,-23.618000,28.91
3.470070,0.409000,-0.146000,-0.827000,-59.160000,101.008000,-23.206000,29.09
3.480081,0.339000,-0.168000,-0.967000,-69.893000,135.252000,-29.634000,28.86
3.490036,0.349000,-0.094000,-0.874000,-94.290000,169.191000,-35.740000,29.05
3.499983,0.329000,-0.060000,-0.892000,-102.427000,178.748000,-39.130000,29.00
3.510133,0.427000,0.086000,-0.886000,-112.229000,202.992000,-48.763000,28.91
3.520015,0.429000,-0.009000,-0.958000,-110.901000,228.305000,-49.695000,29.05
3.530014,0.415000,-0.010000,-0.952000,-97.985000,237.634000,-61.313000,28.95
3.540093,0.470000,0.007000,-0.940000,-96.534000,241.099000,-79.008000,29.00
3.550038,0.508000,-0.073000,-0.785000,-110.427000,263.023000,-92.641000,29.00
3.560199,1.005000,-0.162000,-1.203000,-42.473000,253.023000,-44.229000,28.95
3.570044,0.981000,-0.248000,-0.941000,-62.733000,298.382000,-33.099000,29.05
3.579982,1.163000,-0.317000,-1.356000,-55.008000,268.550000,-34.565000,29.00
3.590027,1.305000,-0.393000,-1.616000,-44.168000,304.458000,-97.740000,29.00
3.600051,1.505000,-0.049000,-1.634000,-64.947000,339.725000,-156.336000,29.05
3.610064,1.627000,-0.337000,-1.901000,-87.802000,361.496000,-204.427000,29.05
3.620212,1.663000,-0.667000,-2.157000,-114.534000,278.168000,-231.160000,29.00
3.629991,1.854000,-0.650000,-2.135000,-112.504000,226.824000,-220.962000,29.00
3.640123,0.513000,-1.562000,-2.810000,-70.550000,127.221000,-161.267000,28.95
3.650052,0.830000,-4.000000,-2.851000,-15.649000,103.664000,1.740000,29.05
3.660075,1.455000,-3.758000,-3.625000,-61.863000,-159.847000,118.473000,29.00
3.669987,-0.834000,-2.798000,-1.038000,-116.153000,-238.427000,126.015000,29.09
3.682629,-0.879000,-1.531000,-1.401000,-126.763000,-254.412000,135.099000,28.95
3.689920,-0.815000,-0.547000,-1.702000,-62.519000,-261.374000,114.550000,28.95
3.699917,-0.870000,-0.519000,-2.073000,15.069000,-179.206000,75.527000,29.09
3.710083,-0.549000,-0.840000,-1.559000,68.061000,-172.840000,33.924000,29.00
3.720024,-0.160000,-1.090000,-1.316000,57.832000,-140.809000,15.267000,28.95
3.729903,0.114000,-1.030000,-1.156000,39.359000,-189.786000,12.641000,29.05
3.739994,0.225000,-0.724000,-1.152000,39.771000,-212.275000,17.435000,29.00
3.749954,0.399000,-0.509000,-1.221000,74.794000,-237.924000,32.214000,29.00
3.759959,0.458000,-0.490000,-1.150000,116.748000,-238.336000,48.809000,29.05
3.770021,0.596000,-0.477000,-1.188000,145.466000,-230.366000,65.115000,28.95
3.780025,0.741000,-0.493000,-1.268000,154.748000,-218.672000,78.198000,28.91
3.790011,1.268000,-0.248000,-1.498000,147.588000,-180.290000,87.328000,28.91
3.800071,1.061000,-0.022000,-1.324000,140.244000,-203.542000,93.145000,28.95
3.810092,0.920000,0.221000,-1.240000,155.282000,-228.137000,97.618000,28.95
3.820151,0.733000,0.167000,-1.218000,168.107000,-225.847000,98.687000,29.00
3.830015,1.035000,0.391000,-1.471000,178.992000,-200.305000,102.168000,29.00
3.840228,0.823000,0.425000,-1.447000,185.649000,-188.275000,100.580000,29.05
3.849937,0.922000,0.519000,-1.565000,188.550000,-185.008000,97.954000,29.05
3.860208,0.960000,0.557000,-1.568000,180.473000,-186.076000,93.176000,29.00
3.870170,1.020000,0.646000,-1.563000,175.359000,-191.359000,83.740000,28.91
3.880180,1.155000,0.685000,-1.511000,173.573000,-195.985000,71.145000,28.95
3.890195,1.292000,0.636000,-1.453000,175.130000,-193.802000,61.344000,28.95
3.900205,1.423000,0.628000,-1.418000,175.908000,-181.832000,53.145000,29.09
3.910354,1.545000,0.668000,-1.413000,178.122000,-165.298000,54.718000,29.00
3.920327,1.497000,0.745000,-1.222000,174.824000,-154.916000,56.840000,28.95
3.930203,1.351000,0.859000,-0.820000,142.931000,-123.664000,62.916000,29.05
3.940194,1.560000,0.877000,-0.993000,140.168000,-121.282000,71.099000,28.91
3.950202,1.647000,0.867000,-0.914000,121.573000,-120.885000,79.649000,29.00
3.960246,2.031000,0.813000,-1.241000,107.908000,-99.282000,80.916000,29.05
3.970303,1.431000,0.549000,1.191000,-112.992000,88.092000,104.519000,28.95
3.980145,1.622000,0.513000,0.051000,9.053000,-84.733000,119.130000,29.00
3.990185,1.850000,0.959000,-0.181000,52.763000,8.305000,108.443000,28.91
4.000259,1.914000,1.121000,-0.255000,83.527000,-2.244000,119.542000,29.05
4.010268,1.917000,1.290000,-0.213000,67.985000,-16.916000,125.527000,29.05
4.020039,1.813000,1.453000,-0.120000,23.374000,-3.450000,107.664000,29.00
4.030270,1.746000,1.686000,-0.239000,-19.603000,18.794000,69.618000,29.00
4.040232,1.701000,1.642000,-0.269000,-41.725000,22.244000,30.000000,28.86
4.050111,1.755000,1.899000,0.374000,-78.107000,124.153000,-41.221000,28.95
4.060118,1.249000,1.344000,0.893000,-52.718000,93.344000,-83.481000,29.00
4.070080,1.040000,-0.565000,-1.626000,-63.710000,144.107000,-73.756000,29.00
4.080127,0.885000,-1.243000,-2.245000,-42.397000,55.389000,-49.221000,28.95
4.089963,-0.246000,-1.848000,-0.552000,-64.183000,96.458000,-52.244000,28.91
4.100181,-0.685000,-0.607000,0.590000,-47.420000,49.420000,-60.321000,29.09
4.110111,0.332000,0.198000,-1.020000,-32.473000,152.855000,-54.763000,29.05
4.120216,0.431000,1.011000,-2.454000,-33.405000,195.649000,-84.092000,29.05
4.130025,0.315000,1.322000,-2.426000,-15.405000,169.191000,-109.206000,29.00
4.140118,0.558000,0.541000,-1.866000,9.328000,160.916000,-118.153000,29.00
4.150103,1.393000,-0.808000,-1.504000,16.901000,155.008000,-98.061000,28.95
4.160139,1.393000,-1.339000,-0.703000,1.344000,98.763000,-62.351000,29.05
4.170043,1.024000,-0.820000,-0.871000,-18.031000,75.298000,-51.252000,28.91
4.180256,0.657000,-0.292000,-1.050000,-34.336000,55.496000,-44.321000,29.09
4.190098,0.867000,-0.590000,-0.981000,-49.878000,31.893000,-37.344000,29.05
4.200110,0.926000,-0.738000,-0.841000,-55.817000,13.710000,-28.305000,28.91
4.210213,0.542000,-0.476000,-0.817000,-62.504000,-11.664000,-25.053000,29.00
4.220147,0.343000,-0.354000,-0.635000,-69.176000,-21.374000,-23.939000,29.09
4.230165,0.281000,-0.454000,-0.550000,-81.969000,-32.397000,-23.405000,28.95
4.240116,0.261000,-0.403000,-0.654000,-105.481000,-49.649000,-24.733000,28.95
4.250131,0.338000,-0.320000,-0.974000,-123.160000,-30.046000,-27.893000,28.91
4.260189,0.443000,-0.271000,-1.221000,-114.763000,-3.313000,-27.252000,29.00
4.270066,0.506000,-0.211000,-1.174000,-106.168000,18.534000,-22.275000,28.95
4.280010,0.463000,-0.225000,-1.131000,-93.099000,23.634000,-19.756000,28.95
4.289925,0.396000,-0.204000,-0.998000,-76.595000,28.092000,-20.427000,29.00
4.300030,0.380000,-0.180000,-0.966000,-50.687000,13.710000,-20.702000,28.91
4.309958,0.448000,-0.336000,-0.885000,-48.794000,10.473000,-22.809000,29.05
4.319817,0.386000,-0.216000,-0.870000,-51.359000,9.847000,-25.542000,29.00
4.329844,0.418000,-0.190000,-1.013000,-54.565000,10.198000,-26.962000,28.91
4.339800,0.431000,-0.198000,-1.042000,-51.466000,9.069000,-29.954000,28.95
4.349781,0.389000,-0.188000,-0.903000,-54.672000,11.282000,-30.931000,28.95
4.359791,0.415000,-0.189000,-0.909000,-53.786000,7.954000,-31.115000,29.00
4.369889,0.425000,-0.152000,-0.918000,-47.527000,8.550000,-29.679000,29.00
4.380008,0.412000,-0.118000,-0.939000,-43.542000,12.305000,-28.626000,28.95
4.389932,0.373000,-0.153000,-0.873000,-38.489000,15.603000,-27.145000,29.05
4.399909,0.400000,-0.097000,-0.923000,-35.053000,22.641000,-26.595000,29.00
4.409883,0.424000,-0.091000,-0.927000,-37.542000,26.260000,-24.779000,29.00
4.420012,0.430000,-0.102000,-0.919000,-30.137000,31.985000,-25.420000,29.05
4.429989,0.553000,-0.314000,-0.720000,-40.229000,44.382000,-22.351000,28.95
4.440061,0.519000,-0.103000,-0.950000,-32.244000,40.107000,-24.382000,29.00
4.450157,0.423000,-0.104000,-0.944000,-45.252000,41.618000,-22.641000,29.00
4.460113,0.373000,-0.110000,-0.943000,-43.802000,54.809000,-23.282000,29.05
4.470034,0.440000,-0.089000,-1.304000,-6.656000,74.672000,-24.427000,29.00
4.480120,0.559000,-0.032000,-2.048000,-16.473000,82.168000,-24.733000,29.00
4.490232,0.297000,-0.116000,-0.443000,-51.573000,101.893000,-23.527000,28.95
4.500154,0.435000,-0.079000,-0.803000,-96.916000,130.519000,-19.053000,28.95
4.510182,0.463000,-0.115000,-0.846000,-84.519000,151.985000,-22.137000,29.00
4.520160,0.401000,-0.044000,-0.946000,-55.450000,140.855000,-26.015000,28.91
4.530121,0.348000,-0.022000,-0.830000,-91.771000,199.786000,-35.893000,28.95
4.540183,0.451000,0.004000,-0.896000,-88.977000,192.840000,-38.443000,28.95
4.550101,0.448000,-0.038000,-0.868000,-83.023000,203.298000,-48.885000,28.91
4.560208,0.531000,0.015000,-0.854000,-81.450000,223.817000,-62.687000,29.00
4.570146,0.417000,-0.123000,-0.875000,-79.740000,228.534000,-78.870000,28.95
4.580166,0.595000,-0.062000,-0.783000,-99.023000,260.458000,-92.046000,29.00
4.590008,1.253000,-0.203000,-0.975000,-74.794000,250.840000,-48.977000,29.00
4.600041,1.434000,-0.225000,-0.798000,-88.076000,220.122000,-2.443000,28.91
4.610102,1.354000,-0.367000,-1.431000,-49.374000,270.214000,-0.382000,29.05
4.620093,1.131000,-0.377000,-1.393000,-6.168000,327.450000,-68.031000,28.95
4.630045,1.537000,-0.371000,-2.061000,-7.573000,361.221000,-130.794000,29.00
4.640163,1.760000,-0.058000,-1.709000,-18.321000,396.321000,-175.603000,28.91
4.650164,1.691000,-0.166000,-2.012000,-73.649000,401.008000,-218.366000,28.95
4.660153,1.845000,-0.409000,-2.498000,-78.580000,323.908000,-252.076000,29.00
4.670040,0.984000,-0.719000,-2.698000,-56.260000,261.573000,-203.557000,29.00
4.680135,-0.615000,-2.004000,-2.507000,13.282000,102.504000,-112.641000,28.95
4.690046,0.961000,-4.000000,-3.801000,53.618000,39.573000,18.137000,28.95
4.700132,-0.723000,-3.779000,-3.678000,-53.878000,-74.382000,77.023000,28.91
4.710320,-0.880000,-2.462000,-0.397000,-91.481000,-183.344000,117.924000,29.00
4.720114,-0.927000,-1.340000,-1.885000,-84.275000,-347.863000,112.244000,28.95
4.730214,-0.396000,-0.662000,-1.712000,-31.893000,-238.107000,125.206000,28.95
4.740158,-0.541000,-0.662000,-1.676000,4.137000,-192.565000,102.351000,29.00
4.750107,-0.288000,-0.766000,-1.631000,38.351000,-190.611000,73.298000,29.00
4.760178,0.049000,-0.638000,-1.537000,24.321000,-196.718000,44.015000,28.95
4.770165,0.225000,-0.350000,-1.403000,24.168000,-252.809000,12.412000,29.05
4.780120,0.386000,-0.087000,-1.304000,54.412000,-278.611000,-9.679000,29.00
4.790149,0.629000,-0.030000,-1.385000,101.924000,-325.878000,-22.718000,29.00
4.800108,0.744000,-0.155000,-1.119000,138.473000,-306.656000,-31.939000,28.95
4.810124,0.846000,-0.305000,-1.074000,173.405000,-302.000000,-32.229000,28.95
4.820209,0.924000,-0.390000,-1.021000,189.160000,-282.443000,-27.557000,29.00
4.830160,1.312000,-0.348000,-1.238000,197.344000,-244.901000,-10.260000,29.05
4.840265,1.139000,-0.226000,-0.898000,189.771000,-194.458000,7.832000,28.95
4.850006,1.163000,0.002000,-0.901000,199.389000,-215.267000,26.260000,29.00
4.860292,0.883000,-0.013000,-0.763000,197.542000,-203.298000,42.137000,28.91
4.870287,0.774000,-0.052000,-0.920000,195.710000,-173.160000,48.656000,28.95
4.880285,1.101000,0.002000,-1.088000,200.168000,-140.473000,62.305000,28.95
4.890282,1.055000,-0.118000,-1.226000,199.069000,-136.595000,82.397000,29.00
4.900162,1.153000,-0.087000,-1.427000,192.489000,-126.504000,99.252000,28.91
4.910075,1.212000,0.152000,-1.427000,187.771000,-131.374000,113.817000,28.86
4.920234,1.219000,0.323000,-1.364000,183.802000,-134.534000,121.344000,28.95
4.929957,1.275000,0.461000,-1.303000,174.504000,-131.939000,122.687000,29.00
4.940168,1.360000,0.618000,-1.300000,165.725000,-126.031000,117.954000,28.91
4.950174,1.403000,0.789000,-1.320000,160.733000,-115.893000,111.206000,28.95
4.960154,1.470000,0.964000,-1.388000,159.191000,-104.427000,102.458000,29.00
4.970052,1.542000,1.145000,-1.394000,157.832000,-106.183000,94.290000,29.00
4.979981,1.694000,1.202000,-1.285000,147.038000,-107.878000,86.565000,28.86
4.990203,1.795000,1.198000,-1.102000,131.267000,-113.954000,77.847000,28.95
4.999832,1.881000,1.170000,-0.814000,96.916000,-111.618000,72.550000,28.91
5.009943,1.949000,1.160000,-0.559000,72.718000,-103.405000,71.405000,28.91
5.019891,1.984000,1.125000,-0.346000,49.435000,-81.115000,75.908000,28.95
5.030062,2.010000,1.071000,-0.126000,34.962000,-58.870000,86.534000,29.05
5.039824,1.994000,1.067000,-0.007000,26.168000,-27.435000,100.702000,29.00
5.049787,2.219000,1.005000,0.365000,-19.557000,46.611000,110.702000,29.00
5.059764,2.075000,1.392000,0.643000,-61.313000,78.366000,108.076000,29.05
5.069819,2.347000,1.916000,0.458000,-100.489000,157.008000,79.023000,28.91
5.079800,2.277000,1.358000,0.386000,-93.924000,218.534000,62.580000,28.91
5.089807,0.264000,0.991000,0.562000,-120.977000,287.588000,3.664000,28.91
5.099872,0.523000,0.912000,-3.104000,-122.794000,228.550000,-47.786000,29.05
5.109880,-1.316000,0.349000,-1.842000,-152.214000,133.893000,-73.527000,28.95
5.119975,-0.648000,-0.117000,-0.082000,-69.496000,79.710000,-100.153000,29.00
5.129984,0.525000,0.115000,-0.498000,-15.191000,117.481000,-124.595000,28.91
5.139938,1.521000,0.009000,-2.314000,-8.885000,153.771000,-115.756000,28.95
5.149968,1.288000,0.033000,-2.177000,-39.496000,131.863000,-111.649000,28.95
5.160079,1.182000,-0.366000,-1.567000,-36.198000,52.962000,-71.298000,28.91
5.170098,0.833000,-0.361000,-1.263000,-31.176000,48.107000,-41.084000,29.00
5.180029,0.638000,-0.255000,-1.142000,-28.748000,27.817000,-24.076000,29.05
5.190112,0.630000,-0.482000,-0.921000,-30.519000,26.626000,-16.962000,29.00
5.200054,0.134000,-0.740000,-0.751000,-48.550000,74.519000,-16.947000,29.00
5.210092,0.656000,-0.538000,-1.093000,-27.802000,-63.069000,-5.588000,28.95
5.220193,0.512000,-0.473000,-0.946000,-43.496000,-2.901000,-13.832000,29.05
5.230200,0.920000,-0.504000,-0.794000,-30.840000,19.557000,-23.115000,28.91
5.239959,0.399000,-0.407000,-0.911000,-62.137000,13.939000,-24.137000,28.91
5.250067,0.391000,-0.320000,-0.934000,-72.931000,37.435000,-28.336000,28.95
5.260060,0.382000,-0.239000,-0.910000,-75.847000,18.855000,-27.756000,28.86
5.270114,0.430000,-0.167000,-1.078000,-76.214000,25.832000,-27.008000,28.81
5.279953,0.418000,-0.195000,-0.959000,-68.122000,22.595000,-26.779000,28.91
5.290007,0.474000,-0.230000,-1.007000,-55.954000,14.626000,-25.924000,28.95
5.299982,0.482000,-0.295000,-0.924000,-49.588000,11.099000,-27.695000,28.95
5.309879,0.524000,-0.249000,-0.948000,-35.069000,-2.473000,-28.519000,29.00
5.320267,0.472000,-0.227000,-0.950000,-43.069000,0.550000,-31.038000,29.00
5.329788,0.466000,-0.272000,-0.861000,-45.252000,-1.237000,-33.985000,29.05
5.339651,0.462000,-0.197000,-0.915000,-51.496000,-2.336000,-34.626000,28.91
5.349652,0.406000,-0.187000,-0.875000,-52.809000,-2.137000,-32.489000,28.91
5.359679,0.430000,-0.140000,-0.881000,-53.695000,-0.122000,-29.969000,28.95
5.369674,0.395000,-0.089000,-0.910000,-48.168000,5.588000,-26.977000,28.95
5.379947,0.418000,-0.135000,-0.920000,-41.450000,14.015000,-25.405000,29.00
5.389643,0.417000,-0.142000,-0.916000,-34.763000,16.901000,-25.634000,29.00
5.399639,0.252000,0.259000,-1.083000,-25.924000,10.916000,-36.550000,28.95
5.409721,0.442000,-0.053000,-1.049000,-27.527000,18.458000,-28.489000,28.95
5.419663,0.436000,-0.115000,-0.938000,-28.962000,31.374000,-26.504000,29.00
5.429730,0.435000,-0.083000,-0.808000,-34.351000,44.565000,-22.351000,29.00
5.439728,0.395000,-0.100000,-0.854000,-27.634000,43.481000,-20.076000,28.95
5.449667,0.392000,-0.083000,-0.879000,-30.656000,50.870000,-18.244000,28.91
5.459692,0.432000,-0.084000,-0.880000,-27.939000,58.992000,-16.000000,28.91
