# Gait Analysis Data - MPU6050 IMU
# Duration: 10 seconds
# Format: timestamp(s),ax(g),ay(g),az(g),gx(deg/s),gy(deg/s),gz(deg/s),temp(C)
# Note: Document sensor placement (ankle/wrist) separately
timestamp,ax,ay,az,gx,gy,gz,temp
0.000574,2.369000,1.597000,-0.324000,154.779000,-42.198000,74.656000,28.86
0.001192,2.370000,1.330000,-0.076000,131.069000,-4.870000,68.427000,28.86
0.001757,2.295000,1.679000,0.249000,99.160000,13.496000,58.015000,28.91
0.002310,2.276000,1.781000,0.102000,20.687000,77.298000,39.420000,28.91
0.002859,1.884000,0.827000,0.847000,-53.511000,88.916000,38.916000,28.86
0.003418,2.326000,1.940000,0.830000,-140.244000,31.115000,-15.817000,28.86
0.003987,0.486000,2.534000,0.509000,-277.817000,186.565000,-32.275000,28.91
0.004557,0.602000,-0.228000,-2.350000,-117.725000,112.550000,-39.908000,29.00
0.005135,-0.690000,-1.494000,-2.349000,-110.489000,-21.573000,-18.809000,28.95
0.005714,-1.217000,-0.796000,-0.316000,-12.550000,-50.794000,-65.466000,28.95
0.006307,-0.773000,0.140000,0.354000,-35.496000,35.405000,-121.099000,28.91
0.007002,0.850000,0.006000,-0.794000,-68.855000,224.107000,-121.069000,28.91
0.007697,1.401000,0.468000,-2.698000,-52.733000,191.328000,-113.267000,28.95
0.008383,0.719000,0.688000,-2.169000,-34.519000,169.359000,-126.107000,28.91
0.009080,1.218000,-0.544000,-1.568000,-42.137000,106.824000,-120.321000,29.00
0.009771,1.030000,-0.942000,-0.809000,-41.038000,97.832000,-83.802000,28.91
0.010521,0.541000,-0.538000,-0.730000,-85.282000,99.496000,-78.229000,28.95
0.011321,0.502000,-0.108000,-0.991000,-91.053000,31.573000,-76.885000,28.86
0.012027,0.886000,-0.458000,-0.827000,-121.511000,42.870000,-66.916000,28.91
0.012681,0.794000,-0.608000,-1.048000,-134.626000,-5.893000,-60.672000,29.00
0.013313,0.730000,-0.465000,-1.339000,-157.328000,-9.267000,-60.763000,28.95
0.013931,1.030000,-0.423000,-2.451000,-80.641000,96.763000,-59.603000,28.95
0.014577,0.988000,-0.525000,-0.637000,-110.137000,-75.038000,-68.275000,28.91
0.015199,0.492000,-0.198000,-1.499000,-86.443000,-25.908000,-55.878000,28.91
0.015820,0.487000,0.003000,-1.082000,-103.557000,-6.137000,-41.557000,28.86
0.016444,0.551000,-0.016000,-1.309000,-75.557000,20.779000,-35.191000,28.95
0.017062,0.474000,-0.043000,-0.990000,-59.588000,18.137000,-30.733000,29.00
0.017677,0.469000,-0.025000,-1.027000,-25.496000,-1.649000,-20.214000,29.00
0.018301,0.640000,-0.083000,-1.162000,-27.206000,35.130000,-16.214000,28.95
0.018922,0.368000,-0.115000,-0.824000,-32.962000,75.740000,-16.427000,28.91
0.019539,0.339000,-0.141000,-0.945000,-18.153000,25.115000,-11.145000,28.91
0.020222,0.524000,-0.109000,-0.865000,-13.206000,26.489000,-9.710000,28.91
0.020926,0.489000,-0.086000,-0.884000,-18.000000,28.000000,-7.374000,28.95
0.021588,0.546000,-0.091000,-0.896000,-12.977000,20.931000,-6.366000,28.95
0.022176,0.519000,-0.085000,-0.872000,-12.626000,31.985000,-5.435000,28.91
0.022733,0.548000,-0.127000,-0.882000,-7.908000,17.069000,-4.275000,29.00
0.023295,0.516000,-0.104000,-0.858000,-11.496000,23.969000,-6.702000,28.95
0.023851,0.522000,-0.106000,-0.865000,-12.962000,21.847000,-6.840000,28.95
0.024405,0.522000,-0.085000,-0.853000,-13.557000,20.656000,-6.977000,28.91
0.024959,0.512000,-0.082000,-0.845000,-11.832000,18.229000,-6.397000,28.95
0.025508,0.499000,-0.067000,-0.851000,-9.099000,16.733000,-5.634000,28.95
0.026056,0.514000,-0.089000,-0.848000,-6.489000,15.603000,-5.252000,28.91
0.026599,0.498000,-0.074000,-0.849000,-4.107000,15.298000,-4.504000,29.00
0.027153,0.487000,-0.075000,-0.849000,-1.252000,15.664000,-3.496000,29.05
0.027702,0.490000,-0.077000,-0.849000,1.603000,16.687000,-3.038000,28.86
0.028251,0.501000,-0.071000,-0.848000,3.481000,18.260000,-2.244000,28.91
0.028791,0.517000,-0.070000,-0.862000,5.573000,20.229000,-0.931000,28.91
0.029327,0.508000,-0.076000,-0.855000,8.611000,23.389000,0.427000,28.86
0.029856,0.535000,-0.082000,-0.911000,12.260000,13.053000,4.641000,28.86
0.030452,0.506000,-0.085000,-0.832000,4.626000,45.817000,3.023000,28.91
0.031147,0.551000,-0.109000,-0.860000,16.275000,24.992000,6.015000,28.91
0.031712,0.580000,-0.106000,-0.800000,15.160000,34.412000,6.885000,28.95
0.032335,0.577000,-0.117000,-0.812000,18.458000,38.427000,7.420000,28.95
0.032945,0.512000,-0.177000,-0.819000,18.870000,41.832000,8.321000,28.81
0.033446,0.469000,-0.234000,-0.859000,13.069000,50.641000,6.015000,28.91
0.033972,0.405000,-0.297000,-0.862000,3.267000,62.534000,1.756000,28.95
0.034510,0.408000,-0.280000,-0.871000,-4.336000,74.641000,-9.756000,28.91
0.035042,0.384000,-0.266000,-0.880000,-12.107000,100.214000,-18.611000,28.91
0.035561,0.487000,-0.219000,-0.892000,-15.542000,120.290000,-27.313000,28.91
0.036078,0.501000,-0.180000,-0.931000,-8.824000,142.244000,-35.878000,28.95
0.036590,0.557000,-0.180000,-1.053000,5.160000,162.626000,-47.267000,28.91
0.037105,0.576000,-0.194000,-0.977000,28.519000,144.366000,-54.046000,28.91
0.037618,0.592000,-0.147000,-1.155000,32.275000,145.176000,-66.473000,28.77
0.038127,0.584000,-0.159000,-1.276000,45.084000,165.008000,-82.458000,29.05
0.038642,0.518000,-0.108000,-1.275000,55.954000,160.931000,-99.878000,29.00
0.039159,0.535000,-0.140000,-1.301000,90.641000,146.809000,-123.847000,28.91
0.039675,0.663000,-0.371000,-1.489000,121.298000,109.359000,-142.763000,28.86
0.040293,0.656000,-0.490000,-1.239000,151.099000,50.382000,-170.992000,28.81
0.040962,0.339000,-0.985000,-1.038000,148.443000,28.382000,-176.595000,28.91
0.041499,0.425000,-1.753000,-1.730000,98.290000,-97.481000,-142.840000,28.91
0.042059,0.377000,-1.682000,-1.081000,83.878000,-192.794000,-99.496000,28.95
0.042579,-0.143000,-0.890000,-1.221000,62.916000,-191.115000,-100.748000,28.95
0.043067,-0.284000,-0.613000,-0.418000,72.947000,-171.557000,-92.031000,28.91
0.043548,0.022000,-0.720000,-0.763000,97.389000,-166.031000,-90.031000,28.91
0.044041,0.109000,-0.788000,-0.742000,105.924000,-164.489000,-81.328000,28.95
0.044524,0.133000,-0.697000,-0.539000,95.206000,-141.130000,-69.237000,28.95
0.045007,0.110000,-0.540000,-0.476000,94.443000,-134.076000,-56.092000,29.00
0.045488,0.096000,-0.394000,-0.513000,97.130000,-139.786000,-42.916000,28.81
0.045974,0.135000,-0.361000,-0.676000,104.824000,-143.511000,-31.466000,28.95
0.046458,0.222000,-0.379000,-0.729000,103.221000,-132.534000,-18.733000,28.95
0.046933,0.283000,-0.385000,-0.720000,93.084000,-107.832000,-4.092000,29.00
0.047404,0.313000,-0.286000,-0.763000,85.969000,-88.092000,10.198000,28.91
0.047873,0.337000,-0.198000,-0.847000,79.847000,-66.779000,22.046000,28.95
0.048347,0.389000,-0.168000,-0.915000,71.786000,-57.084000,30.366000,28.81
0.048818,0.469000,-0.168000,-1.046000,65.053000,-63.771000,36.168000,28.91
0.049289,0.512000,-0.162000,-1.105000,50.947000,-64.916000,39.313000,28.95
0.049760,0.573000,-0.146000,-1.239000,57.756000,-76.107000,40.977000,28.86
0.050322,0.652000,-0.118000,-1.254000,60.458000,-84.901000,44.611000,29.00
0.050944,0.698000,-0.080000,-1.162000,72.443000,-89.878000,44.565000,29.00
0.051430,0.721000,-0.050000,-1.061000,79.099000,-92.198000,41.985000,28.95
0.051994,0.737000,-0.029000,-0.969000,82.550000,-86.122000,35.603000,28.95
0.052469,0.783000,-0.018000,-0.953000,79.435000,-69.267000,28.656000,28.91
0.052923,0.811000,0.003000,-0.959000,75.725000,-55.450000,22.504000,28.91
0.053370,0.818000,0.015000,-0.969000,73.725000,-47.664000,16.107000,28.86
0.053817,0.823000,0.071000,-0.956000,76.260000,-42.718000,9.847000,28.91
0.054260,0.797000,0.117000,-0.912000,86.046000,-40.824000,1.603000,28.91
0.054714,0.781000,0.131000,-0.827000,81.405000,-29.740000,-11.481000,28.91
0.055164,0.749000,0.334000,-0.870000,32.992000,-37.634000,-28.977000,28.95
0.055616,0.878000,0.289000,-0.947000,36.229000,-21.939000,-31.756000,28.95
0.056068,0.902000,0.383000,-1.163000,47.496000,-2.580000,-38.366000,29.00
0.056519,0.899000,0.303000,-1.001000,69.847000,-13.298000,-39.588000,28.91
0.056969,0.828000,0.354000,-0.782000,61.969000,-19.237000,-43.038000,28.95
0.057417,0.750000,0.436000,-0.805000,64.382000,-38.779000,-47.206000,28.95
0.057866,0.680000,0.552000,-0.750000,56.794000,-42.489000,-48.992000,28.91
0.058311,0.646000,0.575000,-0.634000,39.832000,-37.878000,-50.336000,28.91
0.058754,0.639000,0.583000,-0.555000,7.924000,-32.962000,-52.534000,28.86
0.059245,0.664000,0.600000,-0.529000,-25.008000,-26.824000,-53.695000,28.91
0.059696,0.727000,0.606000,-0.509000,-57.206000,-21.069000,-53.450000,29.00
0.060153,0.771000,0.704000,-0.452000,-94.260000,-18.290000,-55.008000,28.95
0.060617,-0.347000,0.778000,-0.625000,-86.412000,-34.550000,-63.328000,28.86
0.061068,0.247000,0.087000,-1.228000,-39.649000,54.763000,-32.840000,29.00
0.061519,0.565000,-0.536000,-1.487000,-38.260000,47.038000,-31.511000,28.91
0.061970,0.618000,-0.903000,-1.645000,-48.107000,11.511000,-23.389000,28.95
0.062408,0.558000,-0.723000,-0.897000,27.603000,-96.244000,-11.649000,28.95
0.062850,0.352000,-0.429000,-0.778000,-8.260000,-15.115000,-25.695000,28.91
0.063300,0.570000,-0.123000,-0.973000,-38.000000,20.168000,-15.908000,28.91
0.063743,0.472000,0.021000,-1.318000,-26.718000,7.328000,-8.397000,28.95
0.064180,0.288000,-0.078000,-0.982000,-24.931000,-1.267000,-2.382000,28.95
0.064628,0.376000,-0.349000,-0.910000,-3.695000,-15.389000,-1.969000,28.91
0.065057,0.426000,-0.417000,-0.808000,7.634000,-5.496000,-4.748000,29.00
0.065485,0.363000,-0.339000,-0.810000,2.137000,-5.313000,-6.718000,28.95
0.065920,0.353000,-0.273000,-0.864000,-2.931000,-2.504000,-7.420000,28.81
0.066352,0.373000,-0.248000,-0.882000,-7.893000,-6.473000,-6.214000,28.91
0.066785,0.347000,-0.251000,-0.841000,-8.076000,-7.160000,-5.725000,28.91
0.067336,0.325000,-0.241000,-0.885000,-7.252000,-7.863000,-5.359000,28.95
0.068023,0.318000,-0.183000,-0.979000,-4.427000,-4.504000,-4.962000,28.86
0.068473,0.305000,-0.119000,-1.052000,2.580000,1.847000,-2.626000,29.00
0.068906,0.302000,-0.177000,-0.978000,10.641000,2.901000,-0.550000,28.91
0.069331,0.321000,-0.256000,-0.937000,16.137000,6.611000,0.687000,28.95
0.069759,0.364000,-0.298000,-0.940000,20.061000,10.046000,0.809000,28.86
0.070182,0.403000,-0.278000,-0.923000,21.557000,13.450000,2.214000,28.81
0.070613,0.384000,-0.293000,-0.903000,23.160000,11.008000,2.794000,28.91
0.071036,0.372000,-0.314000,-0.873000,21.496000,8.992000,3.466000,28.95
0.071462,0.393000,-0.339000,-0.863000,18.214000,5.924000,4.229000,28.77
0.071884,0.382000,-0.370000,-0.838000,13.023000,8.443000,4.122000,28.91
0.072303,0.382000,-0.354000,-0.864000,7.908000,11.344000,3.038000,28.95
0.072729,0.387000,-0.329000,-0.894000,7.206000,11.084000,2.275000,28.95
0.073161,0.391000,-0.339000,-0.897000,7.328000,8.366000,2.962000,28.91
0.073581,0.359000,-0.342000,-0.860000,6.489000,4.244000,2.947000,28.81
0.074000,0.363000,-0.354000,-0.847000,6.107000,3.710000,1.420000,29.05
0.074424,0.382000,-0.373000,-0.837000,3.145000,4.656000,-0.122000,28.95
0.074855,0.373000,-0.344000,-0.846000,-1.344000,2.855000,-0.870000,29.00
0.075280,0.357000,-0.330000,-0.846000,-6.565000,0.504000,-1.252000,28.91
0.075704,0.360000,-0.332000,-0.851000,-9.176000,1.221000,-2.321000,28.95
0.076134,0.406000,-0.321000,-0.926000,-6.977000,4.947000,-2.794000,28.95
0.076570,0.383000,-0.265000,-0.924000,-2.580000,1.695000,-1.252000,29.00
0.077015,0.353000,-0.287000,-0.882000,-0.779000,-3.252000,-0.046000,28.91
0.077448,0.345000,-0.309000,-0.850000,7.267000,2.229000,-0.626000,28.95
0.077882,0.350000,-0.271000,-0.843000,3.481000,3.634000,0.870000,28.91
0.078314,0.347000,-0.260000,-0.900000,6.198000,4.626000,1.740000,28.91
0.078737,0.348000,-0.287000,-0.874000,6.153000,5.053000,2.672000,28.91
0.079149,0.351000,-0.291000,-0.874000,8.076000,4.275000,3.603000,28.86
0.079567,0.339000,-0.288000,-0.873000,9.511000,5.878000,3.496000,28.95
0.079980,0.350000,-0.314000,-0.848000,10.137000,7.099000,4.031000,28.91
0.080386,0.352000,-0.327000,-0.836000,9.267000,7.435000,4.168000,28.81
0.080789,0.341000,-0.313000,-0.863000,7.527000,7.298000,3.679000,28.86
0.081197,0.347000,-0.327000,-0.841000,5.939000,7.389000,3.267000,28.95
0.081606,0.350000,-0.333000,-0.852000,4.092000,7.924000,2.885000,29.00
0.082025,0.352000,-0.325000,-0.866000,3.084000,8.504000,2.382000,28.91
0.082427,0.360000,-0.332000,-0.874000,1.786000,8.046000,2.275000,28.95
0.082835,0.381000,-0.358000,-0.908000,1.603000,9.084000,1.908000,28.95
0.083266,0.371000,-0.360000,-0.892000,1.771000,9.115000,1.160000,28.91
0.083705,0.378000,-0.366000,-0.871000,1.618000,8.244000,0.382000,28.91
0.084116,0.400000,-0.380000,-0.878000,1.191000,8.565000,-0.229000,28.86
0.084535,0.381000,-0.378000,-0.866000,-1.206000,6.305000,-1.115000,28.91
0.084976,0.403000,-0.425000,-0.838000,-4.397000,4.153000,-2.687000,28.91
0.085430,0.415000,-0.447000,-0.812000,-9.328000,1.359000,-4.290000,28.91
0.085864,0.397000,-0.406000,-0.780000,-15.023000,-1.359000,-5.634000,28.86
0.086305,0.388000,-0.346000,-0.814000,-21.099000,-4.015000,-6.885000,28.95
0.086733,0.390000,-0.306000,-0.872000,-24.565000,-4.473000,-6.290000,28.81
0.087159,0.386000,-0.297000,-0.892000,-23.298000,-5.786000,-4.733000,28.91
0.087586,0.381000,-0.292000,-0.922000,-15.344000,-4.840000,-3.328000,28.95
0.088013,0.390000,-0.252000,-0.945000,-15.252000,-10.183000,1.008000,28.91
0.088430,0.358000,-0.262000,-0.942000,-6.092000,-9.191000,2.534000,28.91
0.088867,0.345000,-0.261000,-0.929000,1.634000,-2.977000,3.008000,28.95
0.089279,0.349000,-0.259000,-0.918000,6.565000,2.443000,3.908000,28.95
0.089687,0.361000,-0.280000,-0.914000,9.389000,0.229000,5.557000,29.00
0.090115,0.357000,-0.313000,-0.900000,11.344000,-1.954000,6.931000,29.00
0.090531,0.340000,-0.319000,-0.865000,11.939000,-3.695000,7.328000,29.05
0.091092,0.347000,-0.323000,-0.851000,11.435000,-2.214000,6.687000,28.95
0.091667,0.322000,-0.339000,-0.855000,11.328000,-3.206000,6.351000,28.91
0.092128,0.339000,-0.292000,-0.875000,12.534000,-1.359000,5.695000,28.91
0.092572,0.347000,-0.282000,-0.872000,7.573000,-8.809000,6.885000,28.86
0.093071,0.319000,-0.244000,-0.889000,9.115000,-11.221000,5.740000,28.86
0.093575,0.326000,-0.230000,-0.880000,9.954000,-11.664000,4.183000,28.91
0.094016,0.308000,-0.178000,-0.880000,10.458000,-12.305000,-3.924000,28.91
0.094459,0.344000,0.007000,-0.927000,26.687000,39.267000,-26.336000,28.95
0.094887,0.311000,0.300000,-1.157000,18.122000,-32.153000,-58.992000,28.86
0.095344,0.198000,0.733000,-1.191000,0.565000,-64.504000,-103.664000,28.91
0.095784,0.155000,1.141000,-1.249000,5.328000,-55.679000,-175.786000,29.00
0.096231,0.338000,1.227000,-1.457000,14.962000,-85.008000,-241.740000,28.95
0.096669,0.615000,0.840000,-0.951000,-12.031000,-42.901000,-292.519000,28.91
0.097098,0.794000,0.781000,-0.994000,38.534000,-80.733000,-332.229000,28.91
0.097536,0.928000,0.518000,-1.076000,73.481000,-145.969000,-348.885000,28.86
0.097986,0.928000,0.250000,-0.897000,71.542000,-128.229000,-358.580000,28.86
0.098425,0.883000,0.114000,-0.898000,73.084000,-111.466000,-362.702000,28.91
0.098861,0.921000,-0.054000,-0.847000,80.122000,-116.031000,-357.634000,28.91
0.099290,0.880000,-0.191000,-0.778000,86.168000,-111.740000,-348.855000,28.86
0.099724,0.858000,-0.248000,-0.682000,88.015000,-102.794000,-340.031000,28.95
0.100162,0.835000,-0.327000,-0.628000,89.191000,-93.221000,-327.038000,28.91
0.100594,0.818000,-0.354000,-0.635000,88.046000,-80.107000,-313.511000,28.81
0.101116,0.806000,-0.413000,-0.636000,89.771000,-65.420000,-297.573000,28.86
0.101714,0.794000,-0.389000,-0.670000,89.969000,-54.061000,-281.679000,28.91
0.102225,0.781000,-0.377000,-0.771000,91.282000,-47.511000,-266.580000,29.00
0.102692,0.767000,-0.343000,-0.777000,95.145000,-47.298000,-251.664000,28.81
0.103128,0.743000,-0.333000,-0.829000,97.649000,-47.420000,-239.069000,28.86
0.103558,0.699000,-0.272000,-0.835000,99.069000,-51.878000,-227.557000,28.95
0.103984,0.646000,-0.243000,-0.805000,97.298000,-52.626000,-219.145000,28.91
0.104412,0.635000,-0.222000,-0.814000,95.481000,-50.275000,-213.847000,28.91
0.104839,0.592000,-0.189000,-0.805000,98.519000,-52.214000,-212.351000,28.95
0.105267,0.569000,-0.179000,-0.805000,91.969000,-60.473000,-209.679000,28.95
0.105690,0.569000,-0.188000,-0.831000,85.191000,-56.382000,-207.939000,28.91
0.106119,0.555000,-0.220000,-0.845000,86.794000,-57.420000,-204.626000,29.00
0.106548,0.505000,-0.237000,-0.792000,81.664000,-54.229000,-199.664000,28.95
0.106977,0.481000,-0.232000,-0.786000,82.382000,-50.641000,-196.595000,28.95
0.107408,0.477000,-0.224000,-0.774000,75.252000,-44.015000,-195.542000,28.81
0.107832,0.480000,-0.187000,-0.841000,73.802000,-40.260000,-196.550000,28.91
0.108301,0.534000,-0.172000,-0.842000,70.885000,-36.901000,-196.534000,28.86
0.108752,0.568000,-0.177000,-0.905000,67.756000,-39.969000,-194.672000,29.00
0.109185,0.573000,-0.181000,-0.854000,72.198000,-47.023000,-193.145000,28.91
0.109637,0.541000,-0.164000,-0.782000,77.466000,-42.702000,-193.221000,28.86
0.110084,0.583000,-0.172000,-0.767000,67.969000,-50.733000,-189.603000,28.95
0.110512,0.614000,-0.192000,-0.769000,68.672000,-36.550000,-190.336000,28.91
0.110937,0.580000,-0.231000,-0.823000,67.466000,-34.809000,-188.489000,28.91
0.111480,0.532000,-0.401000,-0.843000,64.748000,-39.878000,-182.122000,28.86
0.112086,0.551000,-0.583000,-0.815000,68.275000,-39.237000,-171.939000,28.95
0.112567,0.562000,-0.745000,-0.712000,66.214000,-45.115000,-156.031000,28.91
0.113043,0.520000,-0.854000,-0.594000,72.214000,-36.229000,-139.634000,28.91
0.113490,0.511000,-0.933000,-0.528000,65.405000,-22.656000,-120.779000,28.86
0.113910,0.558000,-0.979000,-0.563000,54.840000,-10.916000,-99.542000,28.86
0.114324,0.641000,-1.007000,-0.639000,44.550000,-4.962000,-75.252000,29.00
0.114742,0.686000,-1.001000,-0.619000,39.817000,-3.832000,-49.344000,28.91
0.115156,0.678000,-1.015000,-0.587000,31.099000,7.481000,-23.649000,28.95
0.115570,0.645000,-1.014000,-0.913000,32.870000,33.939000,-9.832000,28.95
0.115976,0.594000,-0.802000,-0.601000,13.924000,6.611000,7.542000,29.00
0.116389,0.403000,-0.433000,-0.831000,-9.450000,12.336000,6.473000,28.91
0.116801,0.326000,-0.174000,-0.940000,-20.061000,8.092000,3.389000,28.86
0.117215,0.294000,-0.072000,-0.944000,-24.412000,-6.244000,2.244000,28.86
0.117636,0.284000,-0.079000,-0.914000,-22.137000,-17.023000,2.595000,28.91
0.118058,0.293000,-0.142000,-0.891000,-2.626000,-15.771000,0.412000,29.00
0.118474,0.274000,-0.191000,-0.884000,1.664000,-12.901000,-0.992000,28.86
0.118903,0.281000,-0.229000,-0.884000,7.344000,0.366000,-6.672000,28.95
0.119330,0.321000,-0.313000,-0.910000,-11.267000,-0.336000,-8.382000,29.00
0.119755,0.330000,-0.348000,-0.813000,-10.947000,4.626000,-10.840000,28.91
0.120194,0.349000,-0.313000,-0.811000,-15.588000,2.061000,-13.573000,28.86
0.120611,0.395000,-0.314000,-0.900000,-22.382000,2.504000,-15.878000,28.91
0.121162,0.473000,-0.251000,-1.012000,-24.962000,-7.939000,-13.420000,28.91
0.121734,0.167000,-0.158000,-0.591000,-41.084000,44.580000,-17.573000,28.81
0.122223,0.375000,-0.230000,-0.903000,-26.458000,-6.687000,-15.511000,28.86
0.122694,0.367000,-0.223000,-0.953000,-22.458000,-18.168000,-15.130000,29.00
0.123219,0.357000,-0.192000,-0.891000,-17.878000,-10.397000,-16.565000,28.91
0.123713,0.455000,-0.195000,-0.979000,-17.893000,2.977000,-15.756000,28.95
0.124164,0.409000,-0.176000,-0.968000,-15.298000,2.351000,-13.191000,28.77
0.124626,0.381000,-0.188000,-0.971000,-10.550000,-0.458000,-11.053000,28.81
0.125070,0.371000,-0.182000,-0.946000,-7.298000,-4.962000,-9.221000,28.91
0.125512,0.350000,-0.205000,-0.893000,-8.351000,-5.511000,-7.725000,28.86
0.125956,0.361000,-0.208000,-0.901000,-8.336000,-0.336000,-7.313000,28.91
0.126390,0.395000,-0.169000,-0.964000,-5.481000,6.366000,-6.366000,28.91
0.126903,0.370000,-0.148000,-0.956000,-0.763000,4.641000,-4.198000,29.00
0.127447,0.339000,-0.153000,-0.927000,3.374000,1.847000,-2.015000,28.95
0.127919,0.341000,-0.180000,-0.915000,5.481000,2.702000,-1.176000,28.95
0.128336,0.371000,-0.190000,-0.917000,7.786000,6.870000,-0.702000,28.91
0.128757,0.367000,-0.189000,-0.905000,8.840000,9.863000,-0.214000,28.91
0.129191,0.365000,-0.195000,-0.915000,9.389000,6.885000,1.313000,28.95
0.129615,0.348000,-0.208000,-0.912000,11.160000,5.069000,2.061000,28.95
0.130028,0.337000,-0.231000,-0.913000,10.366000,5.527000,2.901000,28.91
0.130467,0.357000,-0.214000,-0.929000,11.679000,6.962000,3.008000,28.91
0.130900,0.356000,-0.219000,-0.916000,12.107000,8.321000,3.389000,28.95
0.131429,0.368000,-0.222000,-0.919000,13.038000,10.565000,3.527000,28.86
0.131972,0.369000,-0.211000,-0.916000,14.992000,10.504000,4.076000,28.91
0.132419,0.364000,-0.241000,-0.896000,15.374000,8.550000,4.473000,28.91
0.132933,0.360000,-0.273000,-0.869000,14.214000,6.748000,3.847000,28.95
0.133461,0.349000,-0.284000,-0.853000,10.992000,6.626000,2.504000,28.91
0.133909,0.363000,-0.289000,-0.849000,6.641000,8.168000,0.809000,28.91
0.134347,0.384000,-0.275000,-0.889000,3.176000,7.939000,0.305000,29.00
0.134797,0.387000,-0.269000,-0.885000,0.702000,4.672000,0.244000,28.86
0.135303,0.372000,-0.247000,-0.874000,-0.458000,2.733000,0.107000,28.95
0.135792,0.364000,-0.262000,-0.874000,-1.664000,2.015000,-0.641000,28.91
0.136230,0.357000,-0.265000,-0.863000,-3.496000,2.015000,-1.588000,28.86
0.136667,0.351000,-0.245000,-0.867000,-5.771000,2.046000,-2.351000,28.86
0.137086,0.353000,-0.239000,-0.881000,-7.053000,2.092000,-2.489000,28.91
0.137499,0.361000,-0.234000,-0.878000,-7.695000,2.244000,-2.595000,28.91
0.137958,0.359000,-0.231000,-0.889000,-7.603000,1.679000,-2.321000,28.95
0.138408,0.356000,-0.227000,-0.892000,-7.145000,2.351000,-2.275000,28.91
0.138828,0.350000,-0.231000,-0.881000,-7.206000,1.023000,-2.214000,28.91
0.139241,0.345000,-0.233000,-0.863000,-7.924000,0.977000,-2.550000,28.91
0.139662,0.339000,-0.224000,-0.860000,-10.031000,0.473000,-3.069000,28.95
0.140084,0.345000,-0.240000,-0.873000,-11.893000,2.351000,-3.863000,28.95
0.140502,0.371000,-0.227000,-0.913000,-11.817000,5.893000,-4.153000,28.91
0.140921,0.377000,-0.199000,-0.931000,-9.344000,5.450000,-3.145000,28.91
0.141420,0.380000,-0.217000,-0.946000,-5.847000,1.771000,-1.908000,28.95
0.141984,0.374000,-0.216000,-0.929000,-1.115000,0.779000,-1.130000,28.86
0.142434,0.366000,-0.213000,-0.916000,1.267000,3.267000,-0.550000,29.00
0.142867,0.362000,-0.225000,-0.903000,2.061000,4.061000,-0.275000,28.91
0.143337,0.357000,-0.232000,-0.897000,1.221000,4.748000,-0.183000,28.86
0.143791,0.365000,-0.229000,-0.904000,0.641000,5.725000,0.076000,28.95
0.144212,0.359000,-0.254000,-0.893000,-0.992000,5.817000,-0.046000,29.00
0.144637,0.366000,-0.254000,-0.887000,-2.076000,5.847000,-0.931000,28.91
0.145058,0.376000,-0.255000,-0.879000,-4.916000,5.313000,-1.282000,28.86
0.145471,0.378000,-0.243000,-0.885000,-7.023000,5.588000,-1.634000,28.91
0.145886,0.372000,-0.242000,-0.899000,-7.527000,5.664000,-1.740000,28.91
0.146300,0.391000,-0.237000,-0.913000,-8.092000,2.687000,-1.267000,28.86
0.146709,0.385000,-0.220000,-0.933000,-5.145000,4.504000,-1.115000,28.86
0.147123,0.372000,-0.219000,-0.910000,-5.313000,4.855000,-0.427000,29.00
0.147536,0.381000,-0.219000,-0.908000,-3.084000,6.000000,-0.260000,28.91
0.147964,0.371000,-0.214000,-0.900000,-2.611000,5.252000,0.122000,28.86
0.148376,0.373000,-0.208000,-0.920000,-1.450000,6.718000,0.885000,28.86
0.148787,0.371000,-0.221000,-0.922000,-1.267000,6.733000,1.374000,28.91
0.149208,0.377000,-0.246000,-0.907000,-0.748000,7.145000,1.435000,28.81
0.149620,0.383000,-0.244000,-0.918000,-2.137000,7.405000,1.511000,28.95
0.150033,0.379000,-0.231000,-0.894000,-3.191000,8.489000,1.802000,28.81
0.150455,0.386000,-0.247000,-0.921000,-2.550000,8.870000,1.588000,28.81
0.150880,0.375000,-0.249000,-0.872000,-3.573000,9.145000,1.160000,28.81
0.151390,0.403000,-0.245000,-0.885000,-6.977000,7.847000,1.344000,28.86
0.151943,0.419000,-0.227000,-0.892000,-8.519000,7.588000,2.305000,28.86
0.152425,0.398000,-0.229000,-0.927000,-9.053000,7.618000,2.229000,28.91
0.152877,0.399000,-0.249000,-0.891000,-8.168000,10.214000,2.779000,28.91
0.153315,0.403000,-0.265000,-0.898000,-9.893000,5.588000,3.817000,28.95
0.153738,0.393000,-0.273000,-0.914000,-10.824000,5.603000,4.397000,28.86
0.154151,0.364000,-0.254000,-0.880000,-16.641000,4.031000,4.992000,28.91
0.154562,0.332000,-0.249000,-0.834000,-19.405000,7.053000,3.282000,28.91
0.154972,0.305000,-0.255000,-0.801000,-23.008000,6.718000,1.099000,28.95
0.155390,0.319000,-0.281000,-0.823000,-23.267000,10.229000,-2.702000,28.95
0.155805,0.308000,-0.262000,-0.807000,-23.252000,14.397000,-6.824000,28.91
0.156227,0.332000,-0.137000,-0.843000,-24.504000,22.519000,-18.580000,29.00
0.156645,0.298000,0.098000,-0.955000,-28.137000,25.145000,-42.275000,28.86
0.157065,0.317000,0.440000,-0.962000,-33.405000,12.473000,-78.550000,28.91
0.157484,0.312000,0.389000,-1.032000,-32.733000,-2.168000,-113.023000,28.91
0.157960,0.506000,0.227000,-1.068000,-25.664000,-8.611000,-136.550000,29.00
0.158388,0.237000,0.921000,-0.981000,6.046000,-1.634000,-181.710000,28.95
0.158808,0.502000,-0.227000,-0.961000,73.771000,3.664000,-172.748000,28.91
0.159233,1.011000,-0.562000,-0.872000,86.000000,34.260000,-184.031000,28.91
0.159652,0.848000,-0.785000,-0.575000,72.916000,0.519000,-167.679000,28.95
0.160079,0.841000,-0.619000,-0.465000,49.908000,-0.916000,-149.405000,28.95
0.160514,0.780000,-0.492000,-0.745000,48.565000,0.855000,-129.939000,28.91
0.160950,0.523000,-0.436000,-0.712000,53.466000,16.565000,-113.160000,29.00
0.161476,0.514000,-0.516000,-0.735000,72.580000,30.565000,-100.702000,28.95
0.162063,0.458000,-0.585000,-0.851000,77.924000,25.618000,-87.954000,29.00
0.162522,0.342000,-0.584000,-0.797000,55.878000,22.672000,-72.183000,28.81
0.162976,0.318000,-0.566000,-1.088000,67.603000,3.084000,-61.313000,28.81
0.163408,0.256000,-0.516000,-0.970000,58.153000,-0.046000,-55.802000,28.86
0.163829,0.103000,-0.364000,-1.094000,46.214000,-18.351000,-48.885000,28.86
0.164262,-0.010000,-0.167000,-1.039000,41.618000,-30.458000,-49.954000,28.91
0.164697,-0.018000,-0.062000,-1.104000,43.405000,-34.962000,-58.031000,28.91
0.165150,0.017000,-0.007000,-1.167000,41.450000,-42.504000,-70.809000,28.95
0.165567,0.105000,0.110000,-1.096000,35.313000,-59.328000,-84.611000,28.86
0.165991,0.220000,0.310000,-1.045000,33.221000,-73.557000,-99.985000,28.91
0.166418,0.493000,0.532000,-0.951000,32.550000,-79.053000,-116.809000,28.91
0.166843,0.555000,0.394000,-1.098000,46.229000,-78.504000,-120.412000,28.86
0.167266,0.783000,0.011000,-0.587000,29.221000,-55.038000,-78.092000,28.86
0.167708,1.138000,-0.422000,-0.625000,14.992000,-54.550000,-1.099000,28.91
0.168142,0.353000,0.118000,-0.684000,6.794000,-44.290000,22.290000,28.81
0.168594,-0.003000,0.247000,-1.470000,21.252000,-55.267000,15.557000,28.95
0.169059,0.063000,-0.338000,-0.842000,29.939000,-34.977000,2.870000,28.91
0.169496,0.388000,-0.947000,-0.498000,24.672000,-14.290000,-5.466000,28.91
0.169920,0.333000,-0.455000,-0.646000,-0.122000,10.092000,-13.160000,28.91
0.170340,0.198000,0.135000,-1.105000,-15.908000,31.206000,-18.321000,28.95
0.170760,0.241000,0.024000,-0.886000,-22.885000,32.473000,-19.802000,28.91
0.171270,0.580000,-0.389000,-0.905000,-15.313000,29.985000,-18.244000,28.91
0.171847,0.572000,-0.310000,-0.843000,-15.954000,10.244000,-15.924000,28.95
0.172307,0.407000,-0.325000,-0.900000,-14.748000,0.427000,-19.969000,29.05
0.172760,0.508000,-0.348000,-0.804000,-27.588000,0.168000,-23.649000,29.00
0.173276,0.452000,-0.172000,-0.916000,-30.702000,5.252000,-26.015000,28.91
0.173735,0.395000,-0.110000,-0.944000,-33.053000,5.206000,-25.145000,28.86
0.174170,0.521000,-0.036000,-1.149000,-34.840000,-7.786000,-19.206000,28.91
0.174621,0.356000,-0.099000,-0.919000,-28.382000,5.145000,-19.618000,28.91
0.175059,0.406000,-0.089000,-0.940000,-26.656000,7.099000,-16.229000,28.91
0.175486,0.407000,-0.071000,-0.945000,-21.115000,8.916000,-13.298000,28.95
0.175909,0.403000,-0.086000,-0.945000,-16.489000,11.649000,-11.008000,28.95
0.176336,0.408000,-0.118000,-0.924000,-12.397000,13.832000,-10.031000,28.91
0.176756,0.409000,-0.127000,-0.904000,-8.611000,11.985000,-9.420000,28.91
0.177181,0.418000,-0.136000,-0.911000,-7.221000,9.679000,-9.053000,28.86
0.177602,0.439000,-0.118000,-0.923000,-7.511000,10.244000,-8.275000,28.95
0.178042,0.431000,-0.125000,-0.903000,-7.618000,11.252000,-7.924000,28.91
0.178467,0.428000,-0.131000,-0.910000,-7.008000,9.466000,-8.244000,28.91
0.178882,0.426000,-0.142000,-0.911000,-6.382000,6.550000,-8.290000,28.86
0.179298,0.436000,-0.126000,-0.888000,-15.282000,4.168000,-6.870000,28.95
0.179714,0.420000,-0.108000,-0.915000,-8.198000,6.702000,-7.573000,28.91
0.180134,0.419000,-0.121000,-0.904000,-8.351000,6.855000,-7.527000,29.00
0.180547,0.406000,-0.116000,-0.890000,-8.824000,8.183000,-7.466000,28.86
0.180956,0.425000,-0.110000,-0.901000,-8.794000,9.496000,-7.176000,29.00
0.181454,0.412000,-0.099000,-0.906000,-8.076000,9.786000,-7.160000,28.91
0.181991,0.421000,-0.090000,-0.900000,-7.725000,9.618000,-6.534000,28.95
0.182481,0.411000,-0.091000,-0.899000,-6.840000,10.336000,-5.725000,28.86
0.182981,0.424000,-0.095000,-0.894000,-6.168000,10.840000,-5.557000,28.91
0.183460,0.427000,-0.099000,-0.900000,-7.328000,11.252000,-4.794000,28.91
0.183922,0.423000,-0.086000,-0.896000,-2.550000,12.794000,-4.748000,28.86
0.184382,0.421000,-0.089000,-0.892000,-3.481000,11.542000,-4.076000,28.86
0.184850,0.431000,-0.097000,-0.889000,-2.977000,11.099000,-3.924000,28.91
0.185334,0.425000,-0.106000,-0.884000,-3.237000,11.298000,-4.244000,28.91
0.185878,0.438000,-0.087000,-0.892000,-4.015000,10.519000,-4.031000,28.95
0.186325,0.437000,-0.093000,-0.892000,-2.641000,9.099000,-4.183000,28.86
0.186768,0.435000,-0.093000,-0.887000,-2.763000,7.908000,-3.893000,28.91
0.187193,0.433000,-0.092000,-0.896000,-2.214000,7.863000,-3.802000,28.91
0.187613,0.439000,-0.090000,-0.889000,-3.084000,6.824000,-3.420000,28.86
0.188050,0.433000,-0.085000,-0.893000,-1.557000,6.427000,-3.191000,28.95
0.188476,0.443000,-0.098000,-0.892000,-1.649000,6.076000,-2.733000,28.91
0.188887,0.436000,-0.099000,-0.896000,-1.176000,5.817000,-2.641000,28.91
0.189316,0.433000,-0.087000,-0.906000,-0.840000,5.817000,-2.366000,28.95
0.189738,0.442000,-0.083000,-0.903000,-1.359000,6.137000,-1.863000,28.86
0.190154,0.446000,-0.089000,-0.897000,-1.679000,6.137000,-1.252000,28.81
0.190572,0.440000,-0.096000,-0.889000,-2.000000,5.191000,-1.038000,28.91
0.190994,0.436000,-0.112000,-0.881000,-2.473000,4.687000,-1.359000,28.86
0.191413,0.443000,-0.110000,-0.885000,-2.397000,4.931000,-2.153000,28.95
0.191830,0.450000,-0.109000,-0.894000,-2.519000,4.840000,-2.260000,28.91
0.192249,0.441000,-0.107000,-0.888000,-2.519000,4.641000,-2.382000,28.91
0.192661,0.441000,-0.083000,-0.904000,-2.061000,5.466000,-1.847000,28.77
0.193213,0.437000,-0.081000,-0.894000,-0.290000,7.115000,-1.008000,28.91
0.193668,0.440000,-0.088000,-0.899000,0.458000,7.954000,-0.153000,28.81
0.194113,0.444000,-0.088000,-0.894000,0.840000,8.595000,0.366000,28.91
0.194530,0.445000,-0.095000,-0.892000,1.847000,8.580000,0.580000,28.86
0.194941,0.446000,-0.089000,-0.895000,2.427000,8.702000,0.763000,28.95
0.195352,0.458000,-0.081000,-0.901000,3.008000,7.557000,1.542000,28.81
0.195847,0.461000,-0.094000,-0.892000,2.916000,5.939000,1.832000,28.86
0.196418,0.476000,-0.116000,-0.896000,2.840000,4.702000,2.137000,28.77
0.196866,0.473000,-0.107000,-0.888000,1.710000,2.718000,2.046000,28.91
0.197299,0.491000,-0.107000,-0.913000,1.969000,1.206000,1.954000,28.81
0.197733,0.490000,-0.109000,-0.895000,-0.168000,1.557000,3.756000,28.95
0.198199,0.500000,-0.084000,-0.934000,2.061000,-1.679000,6.244000,28.86
0.198646,0.516000,-0.103000,-0.923000,4.931000,-4.412000,10.031000,28.91
0.199074,0.517000,-0.142000,-0.911000,9.527000,-11.069000,12.321000,28.91
0.199496,0.507000,-0.209000,-0.894000,10.290000,-16.901000,12.947000,28.95
0.199918,0.494000,-0.231000,-0.874000,13.420000,-19.237000,11.954000,28.86
0.200340,0.432000,-0.222000,-0.887000,6.641000,-19.511000,10.519000,28.91
0.200755,0.382000,-0.264000,-0.906000,0.779000,-19.435000,7.053000,28.91
0.201175,0.364000,-0.218000,-0.902000,-2.473000,-14.351000,3.282000,28.86
0.201591,0.364000,-0.179000,-0.884000,-6.046000,-3.405000,-1.679000,28.86
0.202038,0.367000,-0.099000,-0.914000,-14.183000,6.733000,-9.573000,28.91
0.202491,0.388000,-0.006000,-0.915000,-12.870000,14.458000,-28.947000,28.91
0.202935,0.459000,-0.187000,-0.980000,-7.802000,28.550000,-46.519000,28.95
0.203366,0.555000,-0.300000,-0.987000,-2.580000,19.053000,-56.748000,28.95
0.203778,0.611000,-0.530000,-1.052000,-9.328000,9.313000,-56.718000,28.91
0.204204,0.474000,-0.670000,-1.048000,-21.450000,-3.313000,-41.435000,28.91
0.204619,0.330000,-0.978000,-0.839000,6.702000,-3.069000,-4.244000,28.95
0.205040,0.528000,-1.293000,-0.747000,43.878000,-19.420000,45.527000,28.91
0.205454,0.268000,-1.142000,-0.740000,59.084000,-9.664000,79.084000,28.91
0.205980,0.062000,-0.833000,-0.751000,47.084000,17.649000,95.420000,28.86
0.206530,-0.036000,-0.466000,-0.792000,59.588000,5.221000,100.794000,28.95
0.207001,-0.056000,-0.318000,-0.798000,66.061000,6.550000,98.992000,28.86
0.207497,-0.006000,-0.243000,-0.791000,58.840000,7.863000,95.145000,28.91
0.207984,0.046000,-0.116000,-0.698000,44.244000,5.817000,89.237000,28.95
0.208468,0.086000,0.003000,-0.755000,28.977000,7.389000,78.305000,28.95
0.208921,0.151000,0.112000,-0.813000,18.397000,4.504000,64.260000,28.81
0.209362,0.234000,0.132000,-0.838000,11.420000,-2.076000,49.328000,28.91
0.209799,0.314000,0.122000,-0.759000,4.031000,-9.634000,36.611000,28.95
0.210278,0.320000,0.137000,-0.538000,-4.000000,-10.412000,24.427000,28.91
0.210741,2.063000,1.205000,-0.642000,-69.969000,34.962000,-14.397000,28.81
0.211164,2.097000,2.475000,-0.011000,-215.374000,78.427000,-70.916000,28.91
0.211582,0.553000,1.626000,-1.186000,-97.481000,-27.359000,-47.359000,28.86
0.211999,1.204000,0.212000,-3.558000,-14.183000,47.221000,-8.534000,28.86
0.212424,-0.248000,-0.312000,0.072000,-30.656000,-49.725000,13.756000,28.91
0.212847,0.647000,-0.717000,-1.896000,-4.992000,-133.511000,14.550000,28.91
0.213292,-0.099000,-0.322000,-0.361000,20.076000,-154.718000,-8.534000,28.86
0.213724,0.643000,-0.365000,-0.902000,-26.595000,-15.191000,-18.962000,28.86
0.214157,0.510000,-0.121000,-0.689000,-41.344000,34.962000,-18.687000,28.91
0.214582,0.504000,-0.013000,-0.678000,-30.794000,48.962000,-17.649000,29.00
0.215008,-0.052000,-0.112000,-0.186000,-82.870000,97.405000,-18.977000,28.86
0.215424,0.484000,-0.202000,-0.832000,-29.282000,31.634000,-18.427000,28.86
0.215923,0.530000,-0.165000,-0.954000,-26.092000,-7.115000,-12.427000,28.91
0.216491,0.408000,-0.107000,-0.938000,-10.702000,-22.931000,-11.496000,28.81
0.216967,0.361000,-0.087000,-0.920000,-13.420000,-14.244000,-11.084000,28.95
0.217419,0.374000,-0.089000,-0.910000,-16.763000,-3.603000,-11.298000,28.91
0.217860,0.340000,-0.074000,-0.924000,-18.092000,7.466000,-12.137000,28.91
0.218365,0.356000,-0.079000,-0.918000,-12.824000,8.137000,-13.313000,28.86
0.218825,0.364000,-0.049000,-0.911000,-11.038000,5.710000,-11.756000,28.95
0.219260,0.348000,-0.013000,-0.918000,-10.947000,4.153000,-9.389000,28.91
0.219671,0.358000,-0.055000,-0.899000,-9.511000,9.115000,-8.565000,28.91
0.220083,0.386000,-0.106000,-0.904000,-5.634000,11.206000,-9.038000,28.86
0.220491,0.416000,-0.095000,-0.900000,-5.863000,8.412000,-8.840000,28.95
0.220903,0.385000,-0.068000,-0.879000,-4.473000,9.145000,-8.687000,28.91
0.221312,0.411000,-0.125000,-0.866000,-5.023000,8.305000,-8.031000,28.91
0.221722,0.406000,-0.115000,-0.898000,-7.160000,5.191000,-8.641000,28.77
0.222133,0.416000,-0.117000,-0.899000,-8.672000,2.168000,-8.458000,28.81
0.222544,0.419000,-0.133000,-0.937000,-9.481000,0.809000,-8.718000,28.91
0.222968,0.427000,-0.106000,-0.936000,-9.023000,0.443000,-8.931000,28.81
0.223388,0.409000,-0.083000,-0.927000,-8.137000,0.534000,-8.260000,28.86
0.223807,0.396000,-0.058000,-0.931000,-6.977000,-0.229000,-6.275000,28.86
0.224223,0.388000,-0.050000,-0.935000,-5.023000,-1.099000,-4.748000,28.91
0.224643,0.392000,-0.054000,-0.934000,-3.023000,-3.618000,-3.496000,28.91
0.225049,0.383000,-0.061000,-0.917000,-1.282000,1.511000,-2.748000,28.95
0.225464,0.394000,-0.084000,-0.912000,-0.275000,6.870000,-3.160000,28.95
0.226000,0.398000,-0.082000,-0.914000,-0.183000,7.893000,-2.504000,28.91
0.226615,0.402000,-0.066000,-0.924000,1.328000,9.511000,-1.359000,28.81
0.227095,0.403000,-0.078000,-0.913000,3.282000,11.130000,-0.336000,28.86
0.227534,0.412000,-0.082000,-0.912000,3.954000,11.160000,-0.122000,28.86
0.227964,0.418000,-0.071000,-0.928000,3.908000,8.198000,0.504000,28.91
0.228392,0.423000,-0.064000,-0.923000,3.328000,6.168000,1.191000,28.91
0.228797,0.403000,-0.084000,-0.907000,2.046000,4.855000,1.603000,28.86
0.229202,0.410000,-0.095000,-0.903000,2.534000,3.634000,1.359000,28.86
0.229617,0.400000,-0.087000,-0.894000,2.626000,4.580000,1.374000,28.91
0.230022,0.395000,-0.083000,-0.909000,3.450000,6.443000,1.359000,29.00
0.230425,0.397000,-0.083000,-0.910000,7.252000,9.786000,1.557000,28.95
0.230850,0.401000,-0.071000,-0.913000,11.481000,12.092000,2.534000,28.95
0.231268,0.377000,-0.030000,-0.905000,18.153000,18.809000,4.672000,28.91
0.233967,0.360000,-0.035000,-0.924000,17.939000,20.122000,6.763000,28.81
0.236206,0.404000,-0.196000,-0.905000,13.969000,18.901000,4.840000,28.95
0.236824,0.415000,-0.177000,-0.885000,5.893000,11.237000,2.763000,28.86
0.237341,0.422000,-0.126000,-0.887000,-0.305000,11.679000,1.008000,28.91
0.239563,0.441000,-0.138000,-0.874000,-5.344000,9.481000,0.275000,28.91
0.240154,0.439000,-0.119000,-0.882000,-7.115000,6.809000,-0.550000,28.86
0.240619,0.420000,-0.115000,-0.889000,-6.260000,3.893000,-1.053000,28.95
0.241073,0.428000,-0.099000,-0.887000,-6.015000,2.366000,-1.313000,28.91
0.244273,0.411000,-0.102000,-0.892000,-5.237000,1.328000,-1.618000,28.81
0.245119,0.408000,-0.097000,-0.899000,-4.809000,1.557000,-1.695000,28.95
0.247486,0.398000,-0.083000,-0.898000,-3.893000,3.069000,-1.267000,28.81
0.249522,0.394000,-0.089000,-0.906000,-3.160000,4.947000,-1.008000,28.91
0.252783,0.409000,-0.089000,-0.911000,-3.099000,5.924000,-1.069000,28.86
0.253427,0.405000,-0.095000,-0.907000,-3.435000,5.878000,-1.328000,28.95
0.253917,0.424000,-0.104000,-0.892000,-3.618000,5.191000,-1.298000,28.81
0.254376,0.416000,-0.083000,-0.900000,-4.092000,4.305000,-1.115000,28.81
0.255002,0.420000,-0.082000,-0.896000,-3.374000,3.756000,-0.702000,28.86
0.260334,0.419000,-0.088000,-0.897000,-2.580000,2.855000,-0.580000,28.86
0.261550,0.426000,-0.100000,-0.892000,-2.672000,2.076000,-0.931000,28.91
0.262084,0.426000,-0.095000,-0.891000,-3.771000,0.824000,-1.252000,28.91
0.263442,0.417000,-0.115000,-0.900000,-4.107000,0.260000,-1.863000,28.86
0.264011,0.413000,-0.124000,-0.889000,-5.756000,-0.779000,-2.809000,28.91
0.264474,0.406000,-0.122000,-0.904000,-7.191000,-0.321000,-3.344000,28.81
0.264922,0.406000,-0.101000,-0.892000,-9.145000,-0.061000,-3.740000,29.00
0.265375,0.414000,-0.097000,-0.892000,-8.534000,1.695000,-3.954000,28.86
0.265802,0.409000,-0.094000,-0.905000,-9.160000,1.740000,-4.260000,28.86
0.266239,0.404000,-0.103000,-0.903000,-9.389000,3.099000,-4.473000,28.91
0.266670,0.413000,-0.102000,-0.904000,-10.458000,3.603000,-4.809000,28.91
0.267098,0.406000,-0.081000,-0.893000,-10.397000,4.275000,-4.840000,28.86
0.267517,0.406000,-0.070000,-0.891000,-10.718000,4.519000,-4.611000,28.86
0.267950,0.405000,-0.077000,-0.906000,-9.634000,4.397000,-4.244000,28.91
0.268389,0.437000,-0.091000,-0.893000,-7.115000,3.435000,-3.863000,28.86
0.268814,0.433000,-0.047000,-0.886000,-7.130000,6.031000,-3.542000,28.86
0.269323,0.410000,-0.073000,-0.884000,-5.160000,4.916000,-2.748000,28.91
0.269774,0.426000,-0.087000,-0.895000,-4.779000,4.382000,-2.870000,28.91
0.270197,0.424000,-0.078000,-0.894000,-5.115000,3.313000,-2.763000,28.86
0.271966,0.415000,-0.072000,-0.887000,-5.130000,2.183000,-2.718000,28.86
0.272651,0.422000,-0.061000,-0.888000,-5.496000,2.198000,-1.817000,28.91
0.273124,0.413000,-0.056000,-0.895000,-4.855000,2.260000,-1.664000,28.91
0.273582,0.412000,-0.068000,-0.906000,-4.046000,1.527000,-0.885000,28.86
0.274037,0.413000,-0.068000,-0.901000,-2.733000,1.634000,-0.779000,28.95
0.274491,0.405000,-0.063000,-0.904000,-1.847000,2.458000,-0.412000,28.91
0.274954,0.416000,-0.068000,-0.894000,-1.130000,3.130000,-0.260000,28.81
0.275613,0.411000,-0.077000,-0.896000,-1.130000,3.176000,-0.458000,28.95
0.276124,0.418000,-0.099000,-0.900000,-1.557000,3.130000,-0.840000,28.95
0.276710,0.411000,-0.085000,-0.902000,-2.794000,2.656000,-1.237000,29.00
0.277575,0.421000,-0.085000,-0.902000,-3.954000,2.458000,-1.740000,28.91
0.278160,0.422000,-0.074000,-0.896000,-4.336000,2.183000,-1.618000,28.86
0.278617,0.415000,-0.065000,-0.897000,-3.969000,1.786000,-1.786000,28.91
0.279063,0.415000,-0.066000,-0.899000,-3.160000,2.031000,-1.618000,28.91
0.279503,0.417000,-0.058000,-0.896000,-2.046000,2.321000,-0.931000,29.00
0.279990,0.411000,-0.038000,-0.911000,-0.748000,2.412000,-0.244000,28.86
0.280446,0.412000,-0.043000,-0.909000,1.542000,2.977000,0.336000,28.95
0.280899,0.418000,-0.046000,-0.896000,3.542000,3.023000,1.435000,28.91
0.281337,0.418000,-0.032000,-0.897000,6.366000,2.473000,2.947000,28.95
0.281762,0.402000,-0.000000,-0.889000,9.206000,2.641000,4.855000,28.86
0.282232,0.401000,-0.056000,-0.886000,11.084000,2.641000,5.588000,28.91
0.282668,0.417000,-0.132000,-0.894000,9.206000,-0.962000,4.244000,28.81
0.283104,0.415000,-0.079000,-0.906000,7.191000,-1.710000,3.985000,28.95
0.283534,0.423000,-0.089000,-0.886000,5.084000,-1.130000,3.740000,28.86
0.283967,0.406000,-0.086000,-0.905000,5.710000,-2.244000,3.618000,28.81
0.284404,0.400000,-0.082000,-0.893000,5.893000,-0.809000,3.466000,28.81
0.284842,0.362000,-0.113000,-0.908000,5.191000,-0.397000,2.611000,28.86
0.285359,0.413000,-0.149000,-0.908000,4.061000,1.344000,0.794000,28.86
0.285937,0.412000,-0.132000,-0.912000,2.076000,2.275000,-0.397000,28.91
0.286437,0.433000,-0.108000,-0.935000,0.779000,5.298000,-0.992000,28.91
0.286886,0.458000,-0.084000,-0.946000,3.573000,6.137000,-0.504000,28.95
0.287327,0.445000,-0.065000,-0.908000,9.649000,0.443000,1.588000,28.86
0.287792,0.415000,-0.056000,-0.876000,11.863000,-2.290000,3.802000,28.81
0.288254,0.425000,-0.081000,-0.896000,14.427000,1.832000,5.053000,28.81
0.288680,0.463000,-0.065000,-0.958000,20.947000,7.405000,8.427000,28.95
0.289100,0.516000,-0.044000,-1.003000,34.748000,13.740000,15.740000,28.86
0.289557,0.504000,-0.144000,-0.964000,60.076000,18.473000,20.458000,28.91
0.289994,0.470000,-0.364000,-0.920000,52.947000,5.588000,23.252000,28.91
0.290429,0.357000,-0.427000,-0.947000,53.115000,-13.115000,18.046000,28.86
0.290849,0.265000,-0.361000,-0.947000,34.687000,-8.244000,11.481000,28.91
0.291263,0.291000,-0.388000,-0.887000,31.435000,24.397000,0.015000,28.91
0.291689,-0.077000,-0.334000,-0.963000,18.855000,46.763000,-25.496000,29.00
0.292112,0.205000,-0.617000,-1.385000,7.405000,110.382000,-31.603000,28.86
0.292540,0.109000,-0.163000,-1.611000,12.229000,164.061000,-65.832000,28.95
0.292962,0.267000,-0.714000,-1.895000,3.466000,127.756000,-100.275000,28.91
0.293434,-0.111000,-2.626000,-1.726000,36.504000,27.954000,-40.580000,28.91
0.293891,0.925000,-2.627000,-1.658000,47.328000,31.878000,15.099000,28.77
0.294348,-0.948000,-1.842000,-0.714000,31.313000,-82.534000,80.366000,28.95
0.294780,-1.155000,-0.715000,0.302000,-26.504000,123.420000,64.763000,28.81
0.295216,-1.102000,-0.688000,-0.925000,50.229000,-57.130000,57.084000,28.91
0.295718,-0.885000,-0.641000,-0.882000,42.107000,-99.405000,42.779000,28.86
0.296268,-0.904000,-0.486000,-0.739000,32.198000,-46.168000,20.718000,28.81
0.296731,-0.779000,-0.368000,-0.827000,15.863000,-12.229000,0.244000,28.81
0.297178,-0.501000,-0.413000,-1.010000,13.344000,-9.786000,-5.679000,28.77
0.301431,-0.166000,-0.577000,-1.177000,19.008000,-39.603000,3.496000,28.77
0.311471,0.127000,-0.651000,-1.258000,23.053000,-58.641000,25.511000,28.91
0.321501,0.278000,-0.555000,-1.193000,33.450000,-88.824000,52.824000,28.91
0.331486,0.353000,-0.438000,-0.913000,27.725000,-82.076000,76.550000,28.86
0.341539,0.386000,-0.368000,-0.881000,26.763000,-77.313000,98.183000,28.77
0.351569,0.434000,-0.255000,-0.829000,20.489000,-69.802000,114.962000,29.00
0.361540,0.451000,-0.135000,-0.826000,12.550000,-61.878000,124.962000,28.91
0.371544,0.476000,0.015000,-0.850000,4.321000,-48.565000,127.481000,28.95
0.381565,0.482000,0.144000,-0.911000,-1.313000,-40.947000,122.534000,28.95
0.391597,0.463000,0.234000,-0.924000,-7.053000,-36.061000,109.328000,28.81
0.401617,0.497000,0.267000,-1.005000,-4.626000,-44.260000,89.786000,29.00
0.411664,0.545000,0.333000,-1.053000,-0.489000,-49.511000,67.359000,28.86
0.421667,0.571000,0.326000,-1.036000,7.252000,-61.252000,43.115000,28.86
0.431684,0.653000,0.280000,-1.036000,15.420000,-62.382000,19.542000,28.91
0.441733,0.770000,0.267000,-1.051000,22.351000,-62.916000,1.802000,28.91
0.451743,0.806000,0.211000,-0.930000,28.672000,-67.176000,-9.359000,28.86
0.461707,0.780000,0.188000,-0.664000,26.305000,-58.519000,-17.435000,28.86
0.471806,0.794000,0.131000,-0.546000,27.618000,-60.641000,-22.534000,28.81
0.481897,0.857000,0.020000,-0.568000,22.061000,-51.053000,-23.237000,29.00
0.491885,0.900000,-0.042000,-0.566000,17.511000,-35.863000,-19.786000,28.86
0.502016,0.943000,-0.055000,-0.575000,21.359000,-21.160000,-14.336000,28.86
0.511827,1.373000,0.309000,-0.226000,36.489000,63.450000,-16.305000,28.91
0.521866,1.353000,0.275000,0.287000,23.695000,62.092000,-13.237000,28.81
0.531962,2.150000,0.427000,-0.204000,1.771000,93.771000,-17.450000,28.95
0.541955,2.511000,0.871000,0.076000,-24.794000,141.603000,-25.618000,28.77
0.551992,1.269000,0.321000,-0.144000,-11.710000,101.084000,-18.107000,28.91
0.561916,0.918000,-0.231000,-1.946000,-4.565000,80.641000,3.237000,28.91
0.571985,0.464000,-0.299000,-1.659000,26.809000,13.038000,6.550000,28.77
0.582064,-0.177000,-0.414000,-0.954000,22.092000,-29.084000,-14.092000,28.91
0.591996,0.310000,-0.764000,-0.894000,26.458000,-26.962000,-23.145000,28.81
0.601988,0.677000,-0.659000,-1.081000,0.000000,26.901000,-20.885000,28.81
0.611613,0.288000,-0.162000,-0.843000,-12.092000,32.214000,-20.183000,28.86
0.621576,0.031000,0.044000,-0.700000,-36.275000,79.450000,-33.374000,28.77
0.631550,0.118000,-0.091000,-0.690000,-35.603000,48.855000,-31.618000,28.81
0.641502,0.498000,-0.368000,-1.047000,-38.015000,28.595000,-23.985000,28.91
0.651511,0.550000,-0.407000,-1.155000,-41.359000,27.252000,-17.664000,28.95
0.661584,0.394000,-0.256000,-1.177000,-34.382000,20.198000,-12.534000,28.86
0.671571,0.431000,-0.307000,-1.124000,-23.573000,25.130000,-10.840000,28.81
0.681559,0.400000,-0.395000,-0.928000,-17.740000,25.863000,-8.107000,28.81
0.691602,0.406000,-0.459000,-0.867000,-12.885000,13.969000,-6.580000,28.86
0.701627,0.275000,-0.518000,-0.971000,-18.443000,39.359000,-11.420000,28.91
0.711616,0.473000,-0.419000,-0.955000,-27.924000,36.809000,-10.595000,28.81
0.721668,0.420000,-0.291000,-0.908000,-34.214000,38.977000,-11.160000,28.77
0.731564,0.400000,-0.344000,-0.863000,-33.282000,28.122000,-10.382000,28.86
0.741625,0.354000,-0.348000,-0.812000,-31.206000,9.771000,-12.061000,28.91
0.751633,0.316000,-0.360000,-0.789000,-38.366000,15.710000,-15.191000,28.81
0.761646,0.346000,-0.319000,-0.837000,-43.023000,25.115000,-17.725000,28.95
0.771585,0.392000,-0.200000,-0.992000,-45.908000,40.656000,-16.321000,28.86
0.781670,0.333000,-0.224000,-0.899000,-31.832000,38.702000,-17.191000,28.81
0.791677,0.327000,-0.251000,-0.881000,-29.634000,22.290000,-15.908000,28.81
0.801739,0.383000,-0.297000,-0.892000,-27.695000,19.298000,-18.687000,28.95
0.811668,0.429000,-0.265000,-0.981000,-30.763000,30.595000,-19.756000,28.95
0.821708,0.387000,-0.219000,-0.845000,-34.489000,36.489000,-20.046000,28.81
0.831831,0.409000,-0.205000,-0.921000,-29.344000,26.748000,-18.748000,28.81
0.841768,0.427000,-0.277000,-0.905000,-28.641000,17.924000,-19.069000,28.86
0.851761,0.400000,-0.275000,-0.870000,-32.687000,15.084000,-21.603000,28.91
0.861828,0.400000,-0.266000,-0.901000,-34.611000,19.206000,-24.107000,28.81
0.871843,0.421000,-0.220000,-0.905000,-37.985000,27.847000,-25.298000,28.91
0.881842,0.419000,-0.227000,-0.909000,-40.183000,28.244000,-26.611000,28.86
0.891825,0.402000,-0.229000,-0.896000,-41.649000,23.542000,-27.863000,28.86
0.902088,0.496000,-0.234000,-1.070000,-39.069000,22.580000,-29.267000,28.81
0.911859,0.414000,-0.237000,-0.891000,-36.168000,41.725000,-35.450000,28.91
0.921926,0.429000,-0.258000,-0.927000,-33.817000,52.458000,-42.580000,28.95
0.932003,0.413000,-0.282000,-0.937000,-41.221000,60.992000,-35.298000,28.86
0.942025,0.433000,-0.149000,-0.948000,-45.847000,71.069000,-27.038000,28.81
0.951980,0.429000,-0.113000,-0.744000,-48.840000,151.389000,-33.023000,28.81
0.961867,0.395000,-0.191000,-0.894000,-25.008000,96.595000,-30.382000,28.86
0.972052,0.420000,-0.172000,-0.896000,-36.031000,100.458000,-32.733000,28.86
0.981965,0.394000,-0.151000,-0.869000,-48.275000,138.183000,-43.191000,28.91
0.992263,0.354000,-0.130000,-0.857000,-43.038000,144.901000,-49.405000,28.81
1.002091,0.451000,-0.101000,-0.884000,-46.641000,160.336000,-55.679000,28.95
1.011843,0.459000,-0.073000,-0.876000,-48.427000,169.725000,-59.481000,28.91
1.021675,0.476000,0.003000,-0.844000,-50.031000,161.466000,-60.992000,28.91
1.031609,0.481000,-0.049000,-0.839000,-55.160000,192.931000,-65.435000,28.81
1.041548,0.521000,-0.069000,-0.905000,-54.107000,206.672000,-78.366000,28.95
1.051535,0.575000,-0.240000,-0.919000,-58.046000,221.023000,-88.382000,28.95
1.061513,1.168000,-0.360000,-1.138000,-11.542000,194.504000,-32.763000,28.81
1.071518,1.120000,-0.239000,-1.080000,-17.038000,233.267000,-27.771000,28.91
1.081496,1.075000,-0.337000,-1.192000,9.389000,245.832000,-29.282000,28.86
1.091566,0.964000,-0.146000,-1.630000,-2.153000,285.481000,-88.687000,28.86
1.101561,1.296000,-0.214000,-2.146000,-19.939000,351.069000,-136.718000,28.81
1.111563,1.149000,-0.440000,-1.807000,-50.947000,369.481000,-176.382000,28.91
1.121534,1.477000,-0.492000,-2.341000,-45.603000,330.031000,-200.061000,28.77
1.131553,1.185000,-0.547000,-2.495000,-5.924000,258.550000,-173.756000,28.95
1.141630,0.136000,-2.152000,-2.459000,38.794000,142.977000,-137.405000,29.00
1.151542,0.385000,-4.000000,-3.018000,1.924000,40.229000,-1.160000,28.91
1.161571,0.241000,-2.778000,-3.268000,-90.672000,-138.916000,76.168000,28.95
1.171587,-1.350000,-1.359000,-1.346000,-112.015000,-197.695000,77.160000,28.91
1.181512,-1.347000,-0.471000,-1.927000,-74.855000,-235.344000,51.374000,29.00
1.191573,-1.240000,-0.213000,-2.213000,-31.634000,-311.115000,-0.870000,28.91
1.201639,-0.999000,-0.578000,-1.517000,-54.504000,-197.954000,-51.130000,28.95
1.211606,-0.679000,-0.684000,-1.449000,5.466000,-279.924000,-84.733000,28.86
1.221644,-0.381000,-0.687000,-1.187000,-1.069000,-268.229000,-103.435000,28.91
1.231621,-0.147000,-0.631000,-1.055000,29.252000,-294.183000,-105.893000,28.91
1.241673,0.095000,-0.691000,-0.859000,65.496000,-300.290000,-95.954000,28.86
1.251680,0.346000,-0.899000,-0.755000,92.824000,-278.397000,-73.832000,28.86
1.261679,0.486000,-0.938000,-0.772000,116.076000,-254.198000,-45.557000,28.91
1.271641,0.574000,-0.907000,-0.798000,132.107000,-225.344000,-19.145000,28.91
1.281625,0.759000,-0.841000,-0.825000,145.939000,-204.626000,6.840000,28.86
1.291703,0.966000,-0.911000,-0.850000,143.893000,-192.779000,44.107000,28.77
1.301775,1.018000,-0.892000,-0.891000,128.473000,-172.321000,83.618000,28.91
1.311791,1.022000,-0.626000,-1.093000,121.756000,-155.344000,118.519000,28.81
1.321753,0.988000,-0.251000,-1.236000,126.534000,-141.053000,140.534000,28.86
1.331770,0.938000,0.020000,-1.288000,133.725000,-131.313000,147.756000,28.91
1.341893,0.924000,0.134000,-1.342000,127.038000,-120.992000,145.206000,28.91
1.351931,0.968000,0.270000,-1.397000,118.198000,-125.756000,141.679000,28.91
1.361880,1.026000,0.383000,-1.427000,116.855000,-128.748000,126.351000,28.86
1.371972,1.128000,0.338000,-1.591000,126.672000,-160.046000,105.481000,28.86
1.381861,1.237000,0.258000,-1.509000,129.466000,-161.756000,78.397000,28.81
1.391731,1.363000,0.209000,-1.298000,129.802000,-155.756000,54.076000,28.91
1.401899,1.441000,0.200000,-1.075000,134.611000,-146.137000,32.427000,28.86
1.412034,2.023000,0.228000,-0.347000,127.802000,-71.679000,31.282000,28.86
1.421932,1.676000,0.317000,0.557000,86.473000,-62.977000,28.763000,28.91
1.431945,1.887000,0.575000,-0.782000,117.282000,8.733000,33.847000,28.86
1.442077,1.603000,0.791000,-1.013000,159.298000,45.053000,37.603000,28.95
1.452071,1.442000,0.897000,-1.284000,192.229000,21.802000,25.557000,28.86
1.461918,1.494000,0.709000,-1.211000,207.450000,24.702000,14.916000,28.81
1.472108,1.279000,0.767000,-0.688000,178.580000,-17.145000,-3.084000,28.77
1.482314,1.456000,1.001000,-1.115000,154.519000,-35.649000,-26.153000,28.86
1.492089,1.563000,1.152000,-1.358000,142.534000,-41.588000,-31.328000,28.81
1.502259,1.522000,1.045000,-1.172000,133.863000,-52.550000,-32.366000,28.81
1.512158,1.412000,0.961000,-0.788000,111.740000,-82.763000,-30.626000,28.86
1.522123,1.345000,0.909000,-0.431000,87.740000,-87.969000,-29.176000,28.86
1.531935,1.305000,0.854000,-0.301000,59.954000,-63.023000,-23.313000,28.91
1.541919,1.352000,0.761000,-0.309000,27.313000,-21.634000,-5.527000,28.91
1.551820,1.320000,0.559000,-0.319000,3.099000,-0.794000,21.084000,28.95
1.561803,0.945000,-0.198000,-0.245000,-4.305000,12.122000,64.931000,28.86
1.571838,1.549000,0.632000,0.178000,-130.504000,2.061000,64.580000,28.91
1.581933,1.349000,1.832000,0.527000,-150.214000,135.863000,46.672000,28.81
1.591971,0.164000,0.771000,0.073000,-67.023000,139.313000,55.435000,28.86
1.602022,0.402000,0.348000,-2.091000,-85.313000,100.458000,22.229000,28.91
1.611821,-0.594000,0.705000,-2.428000,-48.885000,91.496000,-38.473000,28.81
1.621677,-0.866000,0.681000,-1.094000,-47.389000,69.527000,-87.969000,28.81
1.631811,0.135000,0.571000,-1.214000,-21.176000,136.794000,-121.863000,28.86
1.641807,1.285000,0.012000,-2.386000,-6.763000,173.267000,-113.191000,28.86
1.651931,1.518000,-0.396000,-2.153000,-14.336000,117.588000,-90.824000,28.81
1.661831,0.908000,-0.402000,-1.137000,4.824000,52.183000,-45.588000,28.91
1.671891,0.630000,-0.361000,-1.112000,12.427000,33.466000,-24.122000,28.86
1.681679,0.659000,-0.359000,-0.943000,4.550000,26.519000,-13.786000,28.86
1.691694,0.617000,-0.788000,-0.405000,-15.481000,66.321000,-8.458000,28.91
1.701669,0.341000,-0.778000,-0.652000,-9.817000,32.015000,-6.702000,28.91
1.711547,0.366000,-0.610000,-0.436000,-5.725000,47.405000,-21.664000,28.86
1.721500,0.472000,-0.439000,-0.774000,-34.015000,-4.626000,-17.771000,28.81
1.731504,0.492000,-0.432000,-0.951000,-50.076000,-7.389000,-18.809000,28.91
1.741463,0.423000,-0.329000,-0.967000,-58.840000,18.427000,-18.122000,28.86
1.751571,0.301000,-0.159000,-0.885000,-45.420000,-0.168000,-16.092000,28.77
1.761485,0.270000,-0.266000,-0.784000,-49.603000,7.603000,-15.649000,28.81
1.771440,0.340000,-0.321000,-0.821000,-68.580000,4.885000,-16.397000,28.81
1.781470,0.458000,-0.475000,-0.843000,-79.893000,12.779000,-19.573000,28.86
1.791476,0.516000,-0.446000,-0.991000,-82.000000,25.221000,-23.863000,28.86
1.807894,0.459000,-0.300000,-0.966000,-73.206000,35.405000,-28.870000,28.91
1.811487,0.535000,-0.484000,-0.835000,-69.969000,26.931000,-32.489000,28.91
1.821641,0.455000,-0.385000,-0.845000,-68.534000,12.290000,-35.511000,28.86
1.831724,0.447000,-0.353000,-0.852000,-71.924000,7.328000,-40.107000,28.86
1.841796,0.377000,-0.284000,-0.807000,-69.160000,5.206000,-38.809000,28.91
1.852232,0.448000,-0.150000,-0.948000,-70.198000,3.634000,-40.931000,28.81
1.863923,0.511000,-0.246000,-0.914000,-72.977000,9.084000,-39.588000,28.77
1.871659,0.406000,-0.168000,-0.870000,-70.824000,16.198000,-38.198000,28.91
1.881645,0.420000,-0.128000,-0.899000,-61.710000,25.985000,-40.137000,28.91
1.891804,0.560000,-0.452000,-0.681000,-40.733000,17.328000,-41.099000,28.91
1.901898,0.397000,-0.023000,-0.958000,-31.679000,14.733000,-47.649000,28.86
1.912323,0.464000,-0.254000,-0.870000,-46.550000,26.198000,-41.618000,28.86
1.921753,0.442000,-0.055000,-0.853000,-34.427000,31.542000,-37.710000,28.81
1.932218,0.381000,-0.032000,-0.911000,-34.916000,47.435000,-31.313000,28.81
1.942152,0.446000,-0.087000,-0.872000,-34.840000,57.008000,-25.725000,28.86
1.958320,0.410000,-0.083000,-0.904000,-35.786000,70.901000,-23.359000,28.86
1.961669,0.421000,-0.124000,-0.902000,-39.435000,86.931000,-21.221000,28.91
1.971658,0.437000,-0.117000,-0.887000,-39.939000,103.985000,-20.550000,28.95
1.981613,0.466000,-0.154000,-0.863000,-43.740000,121.725000,-21.008000,28.77
1.991675,0.445000,-0.165000,-0.868000,-48.962000,139.115000,-23.313000,28.81
2.001897,0.405000,-0.163000,-0.813000,-54.962000,154.672000,-32.992000,28.81
2.012121,0.413000,-0.107000,-0.781000,-63.573000,177.924000,-43.420000,28.86
2.021943,0.448000,-0.012000,-0.848000,-62.641000,177.130000,-48.870000,28.86
2.031678,0.488000,-0.051000,-0.761000,-64.763000,207.206000,-51.924000,28.81
2.041632,0.466000,0.003000,-0.805000,-70.763000,225.542000,-61.115000,28.91
2.051752,0.597000,0.040000,-0.842000,-76.168000,244.840000,-68.168000,28.77
2.061702,0.399000,-0.206000,-0.935000,-78.794000,265.908000,-75.588000,28.86
2.071613,0.945000,-0.107000,-1.052000,-5.878000,221.389000,4.977000,28.81
2.081740,0.731000,-0.218000,-1.191000,-5.618000,229.939000,24.977000,28.91
2.091756,1.022000,-0.507000,-1.446000,36.046000,258.840000,40.458000,28.86
2.101961,1.356000,-0.432000,-1.786000,30.427000,347.786000,-71.725000,28.77
2.112219,1.446000,-0.494000,-2.209000,11.374000,381.160000,-136.840000,28.91
2.121777,1.360000,-0.214000,-1.822000,-58.672000,367.237000,-201.084000,28.91
2.131858,1.608000,-0.390000,-2.035000,-130.427000,349.679000,-261.832000,28.77
2.141944,1.774000,-0.539000,-2.840000,-173.985000,397.053000,-214.626000,28.91
2.151826,0.127000,-1.293000,-2.452000,-114.702000,190.519000,-168.153000,28.91
2.161709,-1.680000,-4.000000,-3.701000,-12.153000,-22.611000,-53.053000,28.77
2.171750,1.123000,-3.518000,-4.000000,-127.847000,-192.275000,48.305000,28.86
2.181650,-1.755000,-2.509000,-1.038000,-187.466000,-249.542000,77.130000,28.91
2.191777,-1.469000,-1.433000,-1.471000,-153.176000,-265.618000,73.588000,28.91
2.201872,-0.877000,-0.855000,-2.658000,-97.771000,-297.298000,46.366000,28.86
2.211821,-0.595000,-1.114000,-2.133000,-91.679000,-112.565000,14.015000,28.95
2.221830,-0.029000,-1.286000,-2.342000,-18.092000,-256.718000,-5.740000,28.72
2.231806,0.232000,-1.055000,-1.888000,-26.763000,-283.115000,-25.435000,28.81
2.241818,0.392000,-0.710000,-1.619000,-6.107000,-361.802000,-48.397000,28.86
2.251713,0.566000,-0.349000,-1.447000,35.191000,-403.298000,-62.107000,28.81
2.261658,0.688000,-0.246000,-1.248000,95.374000,-402.794000,-74.885000,28.81
2.271652,0.846000,-0.448000,-1.007000,150.321000,-378.076000,-78.275000,28.81
2.281648,1.658000,-0.566000,-0.843000,180.260000,-325.344000,-59.145000,28.86
2.291761,1.195000,-0.739000,-0.483000,183.496000,-292.427000,-36.046000,28.95
2.301843,1.416000,-0.540000,-0.672000,192.397000,-242.626000,-2.031000,28.91
2.311606,0.990000,-0.285000,-0.652000,198.565000,-217.069000,28.611000,28.81
2.321789,0.708000,-0.314000,-1.026000,224.260000,-183.008000,49.069000,28.77
2.331826,1.203000,-0.141000,-1.250000,247.084000,-164.046000,73.511000,28.77
2.341889,0.995000,-0.253000,-1.113000,226.260000,-124.931000,84.809000,28.81
2.351980,1.068000,-0.153000,-1.278000,200.000000,-111.206000,92.916000,28.81
2.361854,1.068000,0.079000,-1.379000,192.092000,-118.092000,95.374000,28.86
2.371957,0.968000,0.351000,-1.448000,196.473000,-134.076000,95.847000,28.81
2.381864,1.025000,0.496000,-1.626000,222.000000,-139.817000,92.840000,28.91
2.392087,1.084000,0.543000,-1.737000,228.458000,-149.069000,91.511000,28.95
2.402081,1.196000,0.616000,-1.743000,231.237000,-140.550000,87.053000,28.86
2.411894,1.243000,0.822000,-1.674000,221.496000,-154.702000,82.733000,28.81
2.421962,1.384000,0.939000,-1.703000,206.626000,-142.305000,72.107000,28.81
2.432141,1.622000,0.982000,-1.605000,196.168000,-143.053000,69.252000,28.86
2.441718,1.784000,0.965000,-1.388000,184.458000,-141.496000,72.382000,28.77
2.452183,1.948000,0.924000,-1.074000,173.664000,-138.931000,80.504000,28.91
2.461985,2.095000,0.921000,-0.693000,154.351000,-115.664000,90.809000,28.81
2.472296,2.199000,0.985000,-0.461000,133.191000,-85.664000,102.947000,28.86
2.482172,2.280000,1.088000,-0.304000,110.626000,-47.450000,117.649000,28.77
2.491777,2.299000,1.141000,-0.227000,92.687000,-4.260000,131.954000,28.81
2.502160,2.347000,1.304000,-0.223000,78.779000,37.099000,142.977000,28.91
2.512184,2.376000,1.422000,-0.381000,72.504000,28.489000,149.496000,28.86
2.522205,2.212000,1.450000,0.050000,4.015000,102.260000,132.779000,28.81
2.531919,2.259000,1.457000,-0.144000,-40.214000,103.008000,111.634000,28.91
2.542304,2.224000,1.512000,-0.311000,-73.725000,87.817000,91.069000,28.81
2.552195,2.719000,2.565000,-0.169000,-58.076000,171.557000,5.847000,28.86
2.562240,-0.342000,0.003000,-0.323000,-27.817000,104.382000,-0.107000,28.86
2.572341,1.241000,-0.604000,-3.510000,122.947000,-106.916000,-73.115000,28.91
2.582249,-1.052000,-0.756000,-1.555000,123.466000,-190.626000,-29.389000,28.81
2.592277,-0.529000,-0.311000,0.210000,-49.725000,32.672000,-78.718000,28.86
2.602298,0.303000,-0.584000,-0.568000,-62.000000,79.405000,-64.382000,28.91
2.612139,0.612000,0.134000,-1.384000,-38.611000,173.954000,-51.710000,28.91
2.622261,0.282000,0.557000,-1.825000,-13.282000,167.313000,-63.771000,28.86
2.632553,0.124000,0.568000,-2.078000,2.931000,134.885000,-86.534000,28.81
2.642472,0.309000,0.111000,-1.495000,22.779000,116.504000,-92.885000,28.81
2.652801,0.454000,-0.377000,-1.033000,39.389000,116.580000,-83.954000,28.81
2.662194,0.602000,-0.687000,-0.852000,45.069000,115.344000,-73.832000,28.77
2.672266,0.842000,-0.903000,-1.128000,37.450000,83.115000,-69.817000,28.86
2.682264,1.156000,-0.963000,-1.021000,-4.687000,133.634000,-57.115000,28.72
2.692203,0.939000,-0.898000,-1.053000,14.565000,0.122000,-37.160000,28.72
2.702186,0.849000,-0.769000,-0.933000,-23.588000,13.435000,-27.374000,28.77
2.712111,0.308000,-0.584000,-0.752000,-49.053000,4.336000,-28.656000,28.86
2.722373,0.367000,-0.547000,-0.673000,-34.626000,10.702000,-23.115000,28.81
2.732084,0.260000,-0.557000,-0.708000,-46.656000,-21.053000,-16.626000,28.86
2.742022,0.195000,-0.366000,-0.770000,-59.053000,-68.366000,-18.107000,28.77
2.752108,0.131000,-0.358000,-0.591000,-84.061000,-32.534000,-25.313000,28.81
2.762154,0.316000,-0.430000,-0.745000,-97.710000,-12.992000,-31.893000,28.91
2.771745,0.492000,-0.589000,-0.866000,-115.603000,38.840000,-36.458000,28.86
2.782241,0.537000,-0.562000,-1.019000,-115.527000,64.824000,-32.885000,28.86
2.792121,0.409000,-0.361000,-0.974000,-108.046000,81.130000,-34.473000,28.81
2.802221,0.471000,-0.450000,-0.971000,-95.405000,55.893000,-33.359000,28.91
2.812184,0.457000,-0.495000,-0.872000,-86.840000,19.176000,-30.763000,28.86
2.822243,0.488000,-0.449000,-0.814000,-87.389000,8.351000,-31.313000,28.77
2.832246,0.442000,-0.379000,-0.840000,-91.389000,-2.672000,-33.466000,28.91
2.842246,0.429000,-0.400000,-0.865000,-92.626000,-4.351000,-38.473000,28.81
2.852445,0.353000,-0.255000,-0.842000,-94.748000,-12.718000,-41.603000,28.86
2.861947,1.102000,-0.460000,-0.925000,-111.023000,34.336000,-37.237000,28.86
2.872297,0.278000,-0.165000,-0.557000,-104.870000,15.298000,-45.832000,28.81
2.882272,0.315000,-0.028000,-1.009000,-77.221000,-1.069000,-43.282000,28.81
2.892255,0.467000,-0.182000,-0.913000,-63.221000,7.099000,-39.344000,28.86
2.902297,0.355000,-0.119000,-0.847000,-66.244000,26.168000,-32.382000,28.91
2.912097,0.417000,-0.135000,-0.938000,-40.916000,11.664000,-29.527000,28.72
2.922270,0.390000,-0.184000,-0.893000,-33.695000,18.580000,-27.863000,28.86
2.932278,0.344000,-0.105000,-0.870000,-30.565000,26.840000,-24.305000,28.86
2.942254,0.421000,-0.186000,-0.855000,-24.504000,28.885000,-23.237000,28.81
2.952367,0.402000,-0.215000,-0.923000,-24.611000,35.267000,-25.176000,28.81
2.962276,0.041000,0.190000,-1.016000,-25.374000,33.237000,-41.710000,28.77
2.972193,0.356000,-0.229000,-0.827000,-37.176000,53.908000,-35.221000,28.77
2.982284,0.410000,-0.342000,-0.811000,-38.107000,58.214000,-35.832000,28.81
2.992241,0.549000,-0.189000,-0.942000,-45.603000,75.649000,-32.397000,28.91
3.002222,0.431000,-0.159000,-0.916000,-47.878000,90.519000,-32.198000,28.86
3.012134,0.405000,-0.149000,-0.907000,-47.573000,106.015000,-30.137000,28.91
3.022013,0.437000,-0.087000,-0.906000,-54.733000,127.466000,-26.718000,28.91
3.032002,0.417000,-0.061000,-0.887000,-58.122000,152.641000,-27.405000,28.81
3.041782,0.347000,-0.015000,-0.841000,-66.214000,178.305000,-28.840000,28.86
3.051746,0.342000,-0.014000,-0.830000,-75.481000,201.160000,-36.840000,28.86
3.061739,0.413000,-0.057000,-0.932000,-70.809000,201.573000,-37.893000,28.91
3.071745,0.389000,-0.050000,-0.803000,-69.649000,209.786000,-45.282000,28.91
3.085962,0.444000,-0.122000,-0.829000,-73.221000,233.603000,-55.924000,28.77
3.093857,0.643000,-0.118000,-0.894000,-81.786000,270.702000,-73.374000,28.86
3.103926,0.465000,-0.290000,-0.901000,-91.237000,263.710000,-93.069000,28.81
3.114533,1.155000,-0.496000,-0.828000,-37.786000,199.099000,-7.954000,28.91
3.121731,1.269000,-0.277000,-1.132000,-78.290000,244.595000,8.061000,28.86
3.131601,0.865000,-0.583000,-1.370000,-47.649000,275.115000,-25.511000,28.81
3.141523,1.562000,-0.490000,-1.819000,-31.420000,323.710000,-111.298000,28.81
3.152148,1.866000,-0.523000,-2.213000,-33.740000,376.733000,-172.290000,28.86
3.163158,1.638000,-0.325000,-2.129000,-77.237000,405.389000,-214.458000,28.86
3.171566,1.645000,-0.363000,-2.404000,-151.496000,387.145000,-259.969000,28.81
3.181533,1.527000,-0.630000,-2.287000,-164.382000,306.748000,-226.061000,28.81
3.194881,0.635000,-1.306000,-2.366000,-127.679000,189.954000,-177.420000,28.86
3.203906,-0.980000,-4.000000,-3.909000,-10.977000,129.618000,-4.733000,28.95
3.212066,1.865000,-3.330000,-4.000000,-28.977000,-58.702000,91.115000,28.91
3.222057,-0.514000,-2.132000,-1.777000,-74.260000,-243.252000,121.710000,28.91
3.231958,-1.350000,-0.924000,-1.192000,-80.427000,-224.626000,77.466000,28.86
3.241619,-0.847000,-0.531000,-2.198000,-44.397000,-256.977000,67.053000,28.86
3.258817,-1.040000,-0.377000,-1.733000,28.137000,-254.244000,6.901000,28.72
3.262037,-0.604000,-0.730000,-1.901000,21.221000,-173.802000,-13.924000,28.81
3.272070,-0.140000,-0.842000,-1.672000,36.611000,-217.313000,-35.771000,28.77
3.282054,0.149000,-0.662000,-1.672000,55.344000,-274.137000,-51.069000,28.81
3.292449,0.400000,-0.528000,-1.532000,74.718000,-322.489000,-48.534000,28.81
3.302304,0.559000,-0.357000,-1.275000,104.641000,-358.458000,-44.473000,28.91
3.311939,0.602000,-0.341000,-1.063000,135.359000,-366.321000,-41.908000,28.86
3.321804,0.655000,-0.388000,-0.792000,160.916000,-346.565000,-36.168000,28.86
3.331716,0.750000,-0.495000,-0.661000,171.573000,-310.534000,-21.008000,28.81
3.343940,0.879000,-0.611000,-0.782000,174.443000,-261.664000,1.786000,28.91
3.353707,0.965000,-0.601000,-1.027000,176.641000,-226.183000,31.160000,28.86
3.363290,0.974000,-0.547000,-1.227000,178.504000,-198.214000,63.008000,28.77
3.371542,1.140000,-0.373000,-1.391000,184.244000,-188.015000,94.198000,28.81
3.381524,0.864000,-0.240000,-1.292000,177.160000,-182.916000,111.405000,28.91
3.391523,1.135000,-0.031000,-1.453000,181.298000,-175.649000,124.031000,28.77
3.403699,0.980000,0.083000,-1.330000,179.985000,-167.649000,125.664000,28.86
3.411789,0.855000,0.115000,-1.290000,164.198000,-183.863000,134.000000,28.81
3.427850,1.010000,0.298000,-1.532000,180.931000,-170.000000,129.328000,28.81
3.433078,1.069000,0.400000,-1.533000,185.893000,-156.626000,123.664000,28.86
3.441572,1.217000,0.459000,-1.568000,183.634000,-149.634000,115.557000,28.91
3.451490,1.359000,0.519000,-1.543000,176.504000,-134.992000,104.855000,28.91
3.461623,1.188000,0.714000,-1.170000,175.771000,-134.229000,99.634000,28.86
3.471576,2.116000,0.600000,-1.082000,159.664000,-102.656000,94.031000,28.86
3.481607,2.081000,1.038000,-0.864000,152.427000,-58.031000,88.489000,28.81
3.491612,2.284000,1.121000,-1.334000,141.817000,-80.290000,88.947000,28.72
3.501595,2.334000,1.458000,-1.377000,132.214000,-78.519000,86.290000,28.77
3.511668,2.097000,1.588000,-0.860000,147.053000,-112.046000,77.160000,28.86
3.521757,1.911000,1.592000,-0.360000,136.183000,-126.214000,61.099000,28.81
3.531698,1.998000,1.477000,-0.106000,94.626000,-108.565000,46.351000,28.81
3.541726,2.070000,1.418000,0.116000,41.313000,-67.160000,32.794000,28.86
3.551690,2.182000,1.477000,0.259000,-0.275000,-25.435000,23.099000,28.72
3.561707,2.386000,1.568000,0.526000,-36.076000,29.053000,16.748000,28.81
3.571868,2.770000,1.680000,0.868000,-88.626000,74.000000,16.489000,28.77
3.581805,3.218000,2.072000,1.009000,-128.198000,123.344000,-1.695000,28.77
3.591732,0.290000,1.690000,0.544000,-107.435000,171.908000,-13.344000,28.72
3.601895,1.182000,0.505000,-3.336000,-49.344000,116.198000,-16.885000,28.81
3.611830,-0.444000,-0.615000,-3.382000,-14.580000,-6.748000,-51.588000,28.86
3.621902,-0.487000,-0.363000,-0.034000,-128.244000,108.290000,-76.641000,28.86
3.631964,0.485000,-0.490000,-0.052000,-76.198000,102.397000,-84.641000,28.81
3.641854,1.182000,-0.165000,-1.517000,-64.443000,139.160000,-65.863000,28.81
3.653486,0.449000,0.423000,-1.839000,-44.702000,97.649000,-59.649000,28.86
3.661641,-0.064000,0.666000,-1.300000,-32.443000,78.198000,-75.191000,28.81
3.671485,0.522000,0.006000,-1.363000,-8.397000,51.450000,-67.924000,28.91
3.681625,0.964000,-0.678000,-1.175000,-4.641000,32.901000,-48.733000,28.91
3.691564,0.980000,-0.801000,-1.070000,-12.107000,67.374000,-34.382000,28.86
3.701721,0.632000,-0.314000,-1.340000,-10.687000,46.214000,-27.069000,28.86
3.711741,0.577000,-0.252000,-1.253000,-11.847000,45.573000,-18.382000,28.81
3.721654,0.572000,-0.502000,-0.959000,-14.672000,39.176000,-12.931000,28.91
3.731584,0.646000,-0.559000,-1.000000,-10.076000,35.557000,-7.649000,28.86
3.741537,0.499000,-0.362000,-0.971000,-3.557000,6.962000,-3.359000,28.91
3.751710,0.388000,-0.337000,-0.864000,-3.435000,5.771000,-2.687000,28.81
3.761785,0.283000,-0.516000,-0.716000,-15.985000,19.573000,-8.962000,28.67
3.771715,0.344000,-0.443000,-0.901000,-12.443000,-28.397000,-5.298000,28.86
3.781767,0.182000,-0.357000,-0.997000,-16.168000,-14.931000,-11.786000,28.81
3.791868,0.323000,-0.284000,-0.758000,-35.099000,12.198000,-20.076000,28.91
3.801897,0.338000,-0.304000,-0.897000,-34.244000,6.382000,-22.351000,28.86
3.811908,0.302000,-0.224000,-0.890000,-32.733000,15.237000,-27.069000,28.86
3.821981,0.333000,-0.342000,-0.826000,-41.023000,16.305000,-34.260000,28.81
3.831880,0.410000,-0.397000,-0.950000,-59.420000,22.229000,-26.687000,28.81
3.842007,0.403000,-0.349000,-0.848000,-54.885000,-3.893000,-25.435000,28.86
3.851986,0.431000,-0.367000,-0.888000,-62.840000,-0.580000,-30.290000,28.77
3.862017,0.412000,-0.315000,-0.881000,-68.962000,9.756000,-30.840000,28.91
3.872224,0.396000,-0.181000,-0.932000,-68.214000,10.947000,-31.237000,28.81
3.882134,0.420000,-0.217000,-0.917000,-74.183000,25.969000,-32.122000,28.77
3.892175,0.395000,-0.175000,-0.957000,-64.824000,23.618000,-32.458000,28.91
3.902070,0.409000,-0.147000,-1.069000,-50.092000,16.321000,-30.962000,28.81
3.911658,0.394000,-0.128000,-0.944000,-44.183000,10.763000,-25.802000,28.86
3.922104,0.375000,-0.119000,-0.973000,-35.863000,10.321000,-22.565000,28.86
3.931906,0.381000,-0.134000,-0.934000,-25.573000,6.366000,-20.870000,28.81
3.942150,0.379000,-0.092000,-0.924000,-19.527000,13.313000,-20.168000,28.81
3.952103,0.346000,-0.120000,-0.893000,-22.076000,26.458000,-18.031000,28.77
3.961911,0.384000,-0.123000,-0.897000,-18.534000,30.611000,-16.977000,28.77
3.972067,0.380000,-0.125000,-0.899000,-18.168000,33.878000,-16.962000,28.81
3.982167,0.366000,-0.167000,-0.875000,-14.748000,35.786000,-19.084000,28.86
3.992141,0.289000,0.051000,-1.027000,0.580000,35.939000,-28.824000,28.86
4.002416,0.364000,-0.223000,-0.993000,-18.962000,46.977000,-25.847000,28.81
4.012157,0.456000,-0.254000,-0.938000,-28.504000,65.221000,-26.214000,28.81
4.022161,0.388000,-0.208000,-0.916000,-35.313000,74.855000,-25.374000,28.86
4.032127,0.373000,-0.205000,-0.925000,-42.901000,92.595000,-24.992000,28.77
4.042126,0.424000,-0.215000,-0.918000,-52.519000,108.962000,-25.115000,28.81
4.052296,0.393000,-0.156000,-0.882000,-63.847000,130.824000,-27.985000,28.81
4.062048,0.372000,-0.118000,-0.849000,-73.496000,162.153000,-32.580000,28.86
4.072201,0.270000,-0.038000,-0.834000,-78.427000,181.298000,-42.214000,28.81
4.082119,0.360000,0.010000,-0.876000,-90.534000,217.481000,-48.809000,28.81
4.092106,0.469000,-0.253000,-1.068000,-81.588000,203.603000,-43.191000,28.77
4.102177,0.333000,-0.037000,-0.826000,-101.450000,269.832000,-62.198000,28.81
4.112122,0.498000,-0.055000,-0.878000,-101.313000,276.519000,-75.603000,28.81
4.122234,0.304000,-0.054000,-0.878000,-104.901000,264.443000,-104.504000,28.72
4.132199,0.967000,0.017000,-0.737000,-99.557000,269.756000,-10.794000,28.77
4.141939,1.205000,-0.341000,-1.147000,-113.557000,294.489000,34.962000,28.86
4.151805,0.489000,-0.238000,-1.106000,-126.397000,274.229000,-71.084000,28.81
4.162053,1.024000,-0.399000,-1.160000,-157.618000,354.397000,-99.221000,28.81
4.172047,1.565000,-0.516000,-1.986000,-124.443000,367.695000,-157.435000,28.86
4.181982,2.129000,-0.417000,-2.258000,-103.603000,389.893000,-196.641000,28.77
4.191762,2.073000,-0.455000,-2.398000,-119.603000,401.603000,-235.664000,28.81
4.202213,1.867000,-0.956000,-2.359000,-161.038000,375.832000,-272.977000,28.86
4.212123,1.249000,-0.856000,-2.990000,-116.931000,175.634000,-229.954000,28.91
4.222158,-0.243000,-1.573000,-2.436000,-124.153000,103.405000,-125.206000,28.81
4.231975,0.859000,-3.583000,-4.000000,4.000000,139.130000,36.885000,28.72
4.242156,1.003000,-2.864000,-4.000000,-68.718000,-139.634000,105.786000,28.95
4.252245,-1.304000,-2.301000,-1.213000,-6.153000,-494.046000,132.687000,28.86
4.262166,-0.969000,-1.290000,-1.661000,-30.687000,-266.000000,130.107000,28.91
4.272434,-0.737000,-0.923000,-1.741000,25.176000,-356.168000,116.061000,28.81
4.282381,-0.625000,-0.906000,-1.384000,42.794000,-215.618000,125.786000,28.86
4.292159,-0.369000,-0.967000,-1.151000,75.298000,-201.771000,98.595000,28.81
4.302060,-0.285000,-0.700000,-1.362000,72.229000,-183.588000,69.511000,28.91
4.311921,-0.008000,-0.279000,-1.132000,86.977000,-215.267000,36.794000,28.86
4.322056,0.206000,-0.129000,-1.160000,100.351000,-234.611000,17.496000,28.81
4.331644,0.432000,-0.269000,-1.218000,123.237000,-275.282000,6.519000,28.81
4.341636,0.729000,-0.428000,-1.354000,133.573000,-266.687000,2.885000,28.81
4.351795,0.906000,-0.536000,-1.457000,151.145000,-269.405000,15.710000,28.86
4.361768,0.908000,-0.462000,-1.339000,155.832000,-259.573000,27.420000,28.77
4.371959,1.279000,0.006000,-1.426000,155.634000,-242.046000,39.450000,28.81
4.381976,1.185000,0.121000,-0.950000,158.489000,-250.641000,45.130000,28.81
4.391699,1.099000,0.306000,-0.931000,153.634000,-226.809000,47.664000,28.86
4.401801,0.902000,0.204000,-1.014000,158.137000,-224.153000,46.061000,28.81
4.411649,0.792000,0.041000,-1.156000,158.702000,-225.282000,44.275000,28.81
4.421882,0.850000,-0.025000,-1.208000,158.168000,-194.061000,45.374000,28.77
4.431712,1.094000,-0.082000,-1.202000,157.252000,-185.282000,57.588000,28.77
4.441872,0.848000,-0.258000,-1.008000,149.771000,-169.389000,69.420000,28.81
4.451668,0.938000,-0.177000,-1.088000,142.718000,-156.214000,80.656000,28.81
4.461845,1.006000,-0.127000,-1.126000,140.656000,-139.969000,91.405000,28.77
4.471842,1.101000,-0.106000,-1.162000,141.740000,-114.397000,103.878000,28.86
4.481854,1.208000,-0.021000,-1.272000,146.351000,-105.237000,115.588000,28.91
4.491889,1.284000,0.133000,-1.375000,154.763000,-101.405000,127.115000,28.81
4.502037,1.355000,0.375000,-1.419000,162.550000,-97.069000,133.420000,28.86
4.511967,1.368000,0.631000,-1.399000,166.107000,-101.038000,131.160000,28.86
4.521963,1.395000,0.898000,-1.332000,161.435000,-107.832000,118.412000,28.81
4.531853,1.470000,1.099000,-1.093000,135.527000,-98.901000,98.870000,28.72
4.541889,1.630000,1.199000,-1.240000,94.305000,-103.832000,78.855000,28.77
4.551885,1.692000,1.285000,-1.045000,54.092000,-45.298000,46.748000,28.86
4.561820,1.741000,1.582000,-0.930000,53.084000,-61.252000,1.603000,28.72
4.572007,2.266000,1.238000,-0.573000,26.443000,-52.885000,13.344000,28.81
4.582139,2.246000,1.339000,-0.328000,-2.214000,-112.580000,20.947000,28.86
4.592114,2.028000,1.252000,0.458000,18.275000,-45.466000,18.412000,28.91
4.601847,2.185000,1.451000,0.935000,2.748000,-9.985000,13.405000,28.81
4.611979,2.397000,1.421000,0.935000,-75.771000,116.046000,20.595000,28.77
4.622068,3.020000,1.951000,0.969000,-93.099000,114.031000,34.183000,28.86
4.631901,3.342000,2.387000,1.859000,-104.275000,114.901000,20.687000,28.91
4.641982,0.353000,0.932000,0.616000,-119.557000,276.351000,-1.145000,28.81
4.652007,0.876000,0.119000,-3.776000,-114.489000,139.496000,-25.130000,28.95
4.662164,-0.196000,-0.396000,-3.428000,-78.611000,184.183000,-71.496000,28.77
4.672120,-0.108000,0.065000,-0.089000,5.939000,12.412000,-115.664000,28.91
4.682274,1.054000,0.400000,-0.708000,-30.153000,210.397000,-126.550000,28.91
4.692019,2.097000,0.321000,-2.886000,13.725000,60.595000,-108.626000,28.86
4.702193,1.176000,0.195000,-1.805000,-54.366000,76.382000,-102.641000,28.81
4.712120,1.170000,-0.665000,-1.205000,-41.115000,91.710000,-81.267000,28.91
4.722068,1.133000,-0.626000,-0.570000,-58.092000,140.672000,-60.229000,28.91
4.732054,0.750000,-0.025000,-1.405000,-16.458000,-17.634000,-37.756000,28.95
4.741914,0.801000,-0.279000,-0.991000,-1.298000,5.603000,-24.794000,28.81
4.752123,0.738000,-0.548000,-0.826000,12.534000,-13.405000,-36.351000,28.72
4.762077,0.335000,-0.396000,-0.843000,17.832000,-40.595000,-54.107000,28.86
4.771872,0.620000,-0.475000,-0.850000,23.191000,-70.534000,-29.771000,28.86
4.781702,0.689000,-0.424000,-1.055000,28.550000,-70.641000,-70.718000,28.91
4.792348,0.374000,-0.369000,-0.904000,13.405000,-78.519000,-64.260000,28.72
4.801666,0.356000,-0.317000,-0.793000,-8.611000,-33.023000,-43.771000,28.77
4.811664,0.397000,-0.296000,-0.844000,-27.466000,0.137000,-48.534000,28.81
4.821482,0.439000,-0.203000,-0.929000,-72.595000,49.008000,-44.260000,28.81
4.831441,0.461000,-0.280000,-1.049000,-45.496000,16.885000,-48.366000,28.91
4.841452,0.401000,-0.301000,-0.995000,-44.840000,32.565000,-40.382000,28.86
4.851509,0.473000,-0.340000,-0.858000,-48.794000,33.328000,-30.336000,28.86
4.861472,0.437000,-0.279000,-0.869000,-38.947000,-6.168000,-32.351000,28.91
4.871468,0.433000,-0.237000,-0.866000,-31.817000,-14.015000,-30.366000,28.81
4.881418,0.460000,-0.269000,-0.892000,-30.321000,-9.008000,-28.351000,28.77
4.891443,0.422000,-0.217000,-0.862000,-35.130000,-2.855000,-29.221000,28.86
4.901450,0.399000,-0.186000,-0.858000,-43.405000,5.206000,-26.382000,28.81
4.911434,0.392000,-0.228000,-0.865000,-54.763000,11.511000,-25.924000,28.86
4.921469,0.391000,-0.200000,-0.881000,-51.710000,9.771000,-25.466000,28.86
4.931440,0.387000,-0.170000,-0.879000,-52.427000,15.542000,-25.878000,28.91
4.941488,0.355000,-0.161000,-0.921000,-50.107000,18.168000,-24.046000,28.72
4.951558,0.426000,-0.148000,-0.920000,-42.351000,18.718000,-23.527000,28.86
4.961594,0.427000,-0.126000,-0.935000,-35.832000,18.916000,-22.473000,28.86
4.971519,0.438000,-0.111000,-0.935000,-29.542000,19.450000,-20.626000,28.72
4.981506,0.362000,-0.044000,-0.950000,-22.473000,17.985000,-19.359000,28.81
4.991611,0.404000,-0.094000,-0.903000,-24.244000,27.221000,-19.985000,28.86
5.001637,0.399000,-0.103000,-0.872000,-19.267000,31.313000,-20.198000,28.77
5.011631,0.410000,-0.117000,-0.837000,-27.405000,41.664000,-18.458000,28.81
5.021731,0.451000,-0.130000,-0.840000,-26.321000,46.901000,-17.527000,28.81
5.031784,0.406000,-0.096000,-0.855000,-33.634000,57.664000,-15.649000,28.77
5.041761,0.408000,-0.133000,-0.862000,-39.359000,68.305000,-15.084000,28.81
5.051780,0.402000,-0.160000,-0.866000,-44.779000,76.397000,-14.977000,28.81
5.061739,0.441000,-0.196000,-0.863000,-48.534000,86.336000,-17.328000,28.95
5.071953,0.469000,-0.219000,-0.882000,-59.603000,109.588000,-19.282000,28.77
5.081953,0.476000,-0.162000,-0.851000,-74.336000,130.290000,-22.366000,28.91
5.091777,0.410000,-0.100000,-0.762000,-89.725000,203.008000,-30.977000,28.81
5.102007,0.927000,-0.393000,-1.315000,-305.466000,302.061000,-7.496000,28.86
5.111811,0.525000,0.046000,-0.843000,-181.053000,287.725000,-49.603000,28.86
5.121945,0.619000,0.004000,-1.088000,-118.565000,147.344000,-41.695000,28.91
5.131854,0.503000,0.090000,-1.161000,-77.924000,155.176000,-48.260000,28.81
5.141969,0.638000,0.093000,-0.701000,-91.084000,217.038000,-56.779000,28.77
5.151957,0.626000,0.009000,-0.942000,-82.061000,224.870000,-23.496000,28.77
5.161780,0.962000,0.002000,-0.871000,-91.511000,300.183000,9.847000,28.91
5.171968,1.645000,-0.123000,-1.162000,-52.580000,306.412000,100.153000,28.81
5.181927,1.192000,-0.129000,-1.193000,-42.336000,268.656000,55.130000,28.86
5.191925,0.984000,-0.249000,-0.980000,-80.229000,276.168000,-26.687000,28.81
5.202062,1.211000,-0.235000,-1.298000,-128.672000,346.595000,-42.183000,28.81
5.211844,1.620000,-0.358000,-1.939000,-109.221000,416.824000,-148.183000,28.86
5.221961,2.253000,-0.279000,-2.061000,-35.466000,457.985000,-198.046000,28.86
5.231871,2.288000,-0.190000,-2.049000,-53.771000,436.092000,-224.962000,28.81
5.242019,1.995000,-0.785000,-2.069000,-93.313000,377.450000,-265.160000,28.81
5.251906,0.314000,-0.931000,-2.142000,-129.038000,214.534000,-363.389000,28.86
5.261895,0.357000,-1.476000,-2.387000,-89.344000,109.282000,-143.893000,28.86
5.271865,0.941000,-3.221000,-3.538000,27.679000,107.237000,-6.443000,28.81
5.281944,1.907000,-2.570000,-3.894000,-33.985000,-22.443000,39.634000,28.81
5.291931,-0.927000,-2.486000,-1.056000,-0.809000,-247.893000,36.153000,28.77
5.302016,-0.506000,-1.265000,-0.873000,-96.641000,-159.206000,99.206000,28.91
5.311853,-0.215000,-0.882000,-1.170000,-33.863000,-166.092000,106.000000,28.81
5.322096,-0.337000,-0.573000,-1.769000,12.107000,-202.061000,100.870000,28.81
5.331891,-0.168000,-0.610000,-1.476000,91.450000,-171.145000,76.046000,28.86
5.341989,0.178000,-0.578000,-1.585000,61.740000,-186.672000,60.351000,28.77
5.351932,0.339000,-0.355000,-1.609000,92.870000,-242.046000,28.214000,28.81
5.361799,0.567000,-0.206000,-1.553000,108.504000,-291.176000,7.786000,28.81
5.371879,0.696000,-0.134000,-1.429000,126.748000,-304.885000,-10.137000,28.86
5.382082,0.906000,-0.127000,-1.240000,152.595000,-319.969000,-17.847000,28.81
5.391928,0.963000,-0.117000,-1.051000,174.168000,-328.290000,-21.649000,28.81
5.401922,1.887000,0.086000,-0.585000,152.992000,-263.099000,-16.107000,28.77
5.411983,1.081000,0.035000,-0.258000,151.985000,-287.588000,-10.305000,28.81
5.421962,1.162000,0.156000,-0.656000,192.656000,-278.901000,2.626000,28.81
5.431970,1.062000,0.153000,-0.642000,204.748000,-244.092000,15.496000,28.81
5.441998,1.028000,0.079000,-0.759000,211.740000,-196.382000,28.794000,28.77
5.451935,1.067000,-0.005000,-0.680000,226.611000,-182.763000,40.275000,28.86
5.461880,1.017000,-0.110000,-0.734000,212.794000,-166.550000,51.557000,28.81
5.471792,0.996000,-0.180000,-0.868000,181.099000,-144.519000,67.206000,28.81
5.481789,1.160000,-0.137000,-0.991000,173.710000,-141.634000,82.336000,28.77
5.491698,1.279000,-0.079000,-1.122000,154.031000,-133.313000,106.153000,28.77
5.501525,1.262000,-0.019000,-1.131000,149.344000,-119.969000,119.985000,28.81
5.511439,1.338000,0.102000,-1.130000,140.290000,-114.061000,134.641000,28.91
5.521441,1.404000,0.305000,-1.026000,133.420000,-103.740000,142.366000,28.86
5.531410,1.441000,0.474000,-1.059000,134.076000,-102.550000,143.786000,28.77
5.541435,1.447000,0.676000,-1.078000,122.260000,-90.962000,138.412000,28.91
5.551434,1.508000,0.938000,-1.140000,139.725000,-97.573000,125.725000,28.91
5.561486,1.537000,1.031000,-1.113000,89.359000,-97.115000,124.015000,28.86
5.571517,1.528000,1.271000,-1.100000,126.015000,-118.611000,130.962000,28.72
5.581526,1.837000,1.206000,-0.407000,102.534000,-123.924000,107.237000,28.81
5.591537,2.426000,1.680000,-0.276000,22.687000,-10.458000,78.260000,28.86
5.601579,2.494000,1.969000,-0.392000,52.427000,-66.641000,62.412000,28.86
5.611559,2.351000,1.978000,0.030000,64.153000,-60.565000,68.931000,28.81
5.621570,2.474000,1.923000,0.631000,23.282000,-49.634000,78.977000,28.91
5.631517,2.302000,2.142000,1.046000,-12.122000,-7.634000,75.298000,28.86
5.641694,2.567000,2.448000,1.112000,-48.244000,46.794000,67.908000,28.77
5.651804,2.814000,2.687000,1.411000,-89.130000,104.580000,53.450000,28.81
5.661621,1.672000,2.207000,1.383000,-91.038000,152.290000,27.267000,28.81
5.671667,0.529000,0.752000,-2.035000,-151.466000,203.328000,-0.305000,28.77
5.681606,0.656000,0.541000,-3.569000,-102.107000,72.763000,-41.053000,28.81
5.691916,-0.376000,0.048000,-1.519000,-59.908000,-64.718000,-53.344000,28.81
5.701852,-0.005000,-0.635000,-0.188000,-83.023000,46.656000,-75.511000,28.81
5.711818,1.867000,-0.458000,-1.416000,-69.206000,70.122000,-72.687000,28.77
5.721892,1.693000,-0.082000,-1.854000,-71.969000,-42.916000,-49.282000,28.86
5.731830,0.325000,0.517000,-1.090000,-61.344000,-35.695000,-47.466000,28.81
5.741790,0.667000,-0.252000,-1.071000,-69.863000,57.588000,-33.450000,28.81
5.751835,0.667000,-0.058000,-1.070000,-29.878000,39.573000,-22.137000,28.86
5.761704,0.779000,-0.214000,-1.224000,-6.702000,30.824000,-11.481000,28.77
5.771710,0.496000,-0.255000,-0.859000,16.443000,21.695000,-7.466000,28.81
5.781670,0.602000,-0.382000,-0.883000,0.427000,47.313000,-11.511000,28.86
5.791538,0.577000,-0.327000,-0.853000,-9.679000,29.542000,-7.985000,28.86
5.801559,0.542000,-0.354000,-0.832000,-17.893000,23.588000,-9.679000,28.81
5.811523,0.559000,-0.383000,-0.763000,-25.511000,12.046000,-11.466000,28.72
5.821556,0.513000,-0.280000,-0.894000,-34.473000,7.298000,-13.313000,28.86
5.831558,0.453000,-0.250000,-0.878000,-38.779000,-3.435000,-14.107000,28.95
5.841572,0.533000,-0.274000,-0.936000,-38.198000,14.504000,-19.542000,28.81
5.851608,0.503000,-0.232000,-0.792000,-44.168000,-12.137000,-17.435000,28.91
5.861625,0.492000,-0.165000,-0.940000,-27.603000,-26.107000,-16.336000,28.77
5.871687,0.497000,-0.139000,-1.094000,-34.504000,-8.443000,-20.672000,28.77
5.881651,0.558000,-0.089000,-0.768000,-6.458000,-9.221000,-22.351000,28.81
5.891733,0.390000,-0.207000,-0.951000,-18.580000,13.313000,-25.634000,28.81
5.901802,0.387000,-0.180000,-0.921000,-0.397000,-3.237000,-26.977000,28.77
5.911717,0.448000,-0.181000,-0.960000,-6.229000,-12.229000,-25.389000,28.86
5.921914,0.417000,-0.141000,-0.858000,0.534000,-9.038000,-27.557000,28.81
5.931899,0.439000,-0.167000,-0.897000,-15.252000,6.611000,-26.626000,28.81
5.941755,0.449000,-0.181000,-0.994000,-2.794000,-14.260000,-27.435000,28.77
5.951806,0.458000,-0.140000,-0.848000,-32.397000,11.176000,-25.542000,28.81
5.961859,0.433000,-0.101000,-0.851000,-29.969000,12.092000,-24.870000,28.81
5.971690,0.457000,-0.117000,-0.907000,-29.863000,12.198000,-22.809000,28.91
5.981535,0.453000,-0.097000,-0.907000,-31.954000,9.985000,-19.924000,28.77
5.991490,0.442000,-0.106000,-0.912000,-33.954000,10.000000,-17.771000,28.86
6.005747,0.448000,-0.076000,-0.875000,-37.252000,14.397000,-16.244000,28.81
6.012666,0.303000,0.069000,-0.968000,-34.153000,17.466000,-18.672000,28.77
6.022371,0.422000,-0.020000,-0.916000,-33.221000,27.496000,-16.916000,28.86
6.031525,0.490000,-0.163000,-0.885000,-27.893000,34.366000,-16.412000,28.81
6.041433,0.453000,-0.119000,-0.908000,-28.366000,40.901000,-19.542000,28.81
6.051384,0.462000,-0.167000,-0.875000,-32.885000,50.809000,-21.252000,28.77
6.061457,0.451000,-0.117000,-0.873000,-38.672000,59.206000,-21.420000,28.91
6.071401,0.438000,-0.089000,-0.884000,-41.038000,70.214000,-21.084000,28.81
6.081422,0.457000,-0.099000,-0.864000,-48.153000,85.725000,-19.817000,28.81
6.091402,0.484000,-0.134000,-0.885000,-59.969000,98.779000,-18.214000,28.67
6.101634,0.506000,-0.146000,-0.852000,-70.916000,112.687000,-18.947000,28.86
6.111360,0.508000,-0.119000,-0.853000,-81.649000,130.427000,-22.153000,28.81
6.121412,0.484000,-0.040000,-0.799000,-94.351000,148.656000,-25.786000,28.91
6.131541,0.313000,-0.004000,-1.224000,-24.214000,170.076000,-46.183000,28.77
6.141417,0.344000,-0.039000,-0.614000,-142.672000,189.908000,-43.450000,28.77
6.151414,0.460000,0.020000,-0.955000,-117.634000,194.489000,-51.649000,28.81
6.161423,0.526000,0.176000,-0.729000,-163.908000,203.908000,-48.977000,28.81
6.171394,0.424000,0.071000,-1.079000,-83.939000,209.679000,-69.481000,28.86
6.181440,0.611000,-0.097000,-0.853000,-124.336000,225.740000,-27.573000,28.81
6.191381,1.327000,0.084000,-1.115000,-67.069000,254.275000,72.931000,28.81
6.201482,0.658000,-0.003000,-0.769000,-120.947000,265.924000,56.962000,28.86
6.211365,0.704000,0.123000,-0.942000,-114.366000,236.031000,51.176000,28.77
6.221374,0.984000,-0.440000,-1.406000,-106.641000,352.076000,-14.626000,28.81
6.231376,1.395000,-0.312000,-1.515000,-84.260000,337.924000,-76.947000,28.81
6.241367,1.810000,-0.378000,-2.214000,-48.305000,378.382000,-140.458000,28.77
6.251466,1.917000,-0.331000,-2.207000,-19.389000,414.183000,-185.573000,28.86
6.261435,2.326000,-0.230000,-2.334000,-74.611000,391.603000,-224.290000,28.81
6.271425,1.446000,-0.524000,-2.202000,-164.489000,396.656000,-298.641000,28.72
6.281441,0.869000,-0.661000,-2.238000,-186.855000,196.260000,-208.458000,28.77
6.291394,-1.173000,-2.962000,-2.669000,-6.687000,-30.458000,-49.359000,28.81
6.301512,1.735000,-3.024000,-4.000000,54.244000,127.282000,43.450000,28.81
6.311388,0.243000,-2.585000,-2.742000,-48.153000,-63.924000,61.695000,28.86
6.321415,-0.979000,-2.133000,-0.693000,-88.885000,-178.580000,75.924000,28.86
6.338664,-0.520000,-1.111000,-1.673000,-80.443000,-221.924000,81.664000,28.81
6.341384,-0.345000,-0.646000,-1.887000,-21.389000,-214.885000,91.771000,28.81
6.354759,-0.297000,-0.454000,-1.676000,10.122000,-172.626000,83.847000,28.86
6.362431,0.121000,-0.556000,-1.622000,91.832000,-208.595000,51.405000,28.77
6.372151,0.466000,-0.472000,-1.547000,56.000000,-196.305000,20.107000,28.81
6.381364,0.629000,-0.368000,-1.472000,56.214000,-238.534000,-7.664000,28.81
6.391387,0.860000,-0.082000,-1.352000,106.687000,-298.122000,-24.153000,28.77
6.402263,0.950000,0.011000,-1.178000,129.679000,-341.267000,-25.267000,28.86
6.416139,0.954000,-0.048000,-0.989000,157.038000,-335.008000,-30.168000,28.81
6.421406,1.076000,-0.093000,-0.854000,194.824000,-316.641000,-37.191000,28.81
6.434276,1.382000,-0.083000,-0.973000,209.527000,-298.931000,-35.786000,28.86
6.444625,1.088000,-0.275000,-0.594000,184.504000,-267.573000,-4.397000,28.81
6.454316,1.199000,-0.140000,-0.732000,185.328000,-254.534000,19.695000,28.91
6.462376,1.144000,-0.096000,-0.722000,188.336000,-230.824000,43.511000,28.77
6.471943,0.860000,-0.144000,-0.630000,183.145000,-199.359000,62.092000,28.86
6.481443,0.999000,-0.118000,-0.803000,174.962000,-167.863000,83.557000,28.81
6.491810,1.153000,-0.132000,-1.002000,178.916000,-149.237000,105.145000,28.81
6.501465,0.974000,-0.233000,-1.057000,157.649000,-138.565000,123.084000,28.86
6.511462,1.013000,-0.113000,-1.236000,144.595000,-150.672000,143.542000,28.77
6.521421,0.996000,0.055000,-1.213000,131.344000,-148.107000,159.634000,28.91
6.531423,0.908000,0.104000,-1.347000,142.214000,-143.817000,166.931000,28.91
6.541406,1.054000,0.548000,-1.314000,158.015000,-167.435000,166.107000,28.86
6.551682,1.089000,0.583000,-1.430000,135.130000,-156.595000,160.641000,28.72
6.561431,1.298000,0.642000,-1.377000,134.901000,-168.824000,152.595000,28.72
6.574641,1.495000,0.708000,-1.590000,126.214000,-154.626000,140.336000,28.81
6.581470,1.670000,0.954000,-1.590000,119.160000,-122.565000,125.267000,28.86
6.599995,1.781000,1.009000,-1.184000,101.069000,-170.687000,112.870000,28.77
6.601402,1.998000,1.024000,-1.175000,52.855000,-150.290000,104.672000,28.72
6.611408,2.134000,1.308000,-0.424000,72.626000,-147.740000,86.992000,28.77
6.621412,2.192000,1.426000,-0.293000,51.573000,-98.244000,64.565000,28.77
6.631374,2.272000,1.618000,0.012000,62.015000,-91.237000,57.237000,28.81
6.642193,2.225000,1.765000,0.234000,67.328000,-89.282000,50.916000,28.91
6.651462,2.139000,1.944000,0.378000,57.771000,-56.092000,43.023000,28.86
6.661626,2.246000,2.012000,0.367000,77.298000,-30.137000,26.153000,28.72
6.671391,2.382000,2.171000,0.121000,86.504000,-229.084000,-33.405000,28.72
6.681413,2.401000,2.205000,1.241000,-58.092000,158.840000,-25.725000,28.81
6.692504,3.172000,2.574000,0.181000,-82.550000,140.565000,-51.359000,28.77
6.701455,0.033000,0.536000,-0.567000,-97.649000,23.405000,-35.481000,28.77
6.713443,0.613000,-0.153000,-2.992000,-82.550000,170.870000,-56.855000,28.91
6.723996,-0.383000,-1.196000,-1.787000,15.450000,15.328000,-83.863000,28.81
6.731395,-0.062000,-1.040000,0.043000,-15.298000,103.725000,-117.084000,28.77
6.743190,0.264000,-0.542000,0.640000,-85.267000,167.160000,-88.626000,28.86
6.754845,1.462000,0.260000,-2.078000,-132.534000,321.496000,-84.519000,28.91
6.761391,1.117000,1.341000,-2.510000,-84.992000,248.702000,-74.489000,28.81
6.771446,0.615000,0.957000,-1.877000,-61.481000,103.847000,-93.267000,28.86
6.783319,2.021000,-0.713000,-2.046000,-19.710000,60.595000,-67.298000,28.91
6.792066,1.173000,-0.959000,-0.445000,-10.595000,44.977000,-45.771000,28.81
6.802008,0.553000,-0.179000,-1.197000,38.382000,-16.412000,-46.794000,28.77
6.811512,0.380000,0.155000,-1.260000,64.076000,0.519000,-63.695000,28.86
6.821459,0.891000,-0.393000,-0.760000,-2.824000,32.427000,-45.634000,28.81
6.831436,0.834000,-0.526000,-0.840000,-33.496000,39.634000,-23.084000,28.81
6.841441,0.606000,-0.198000,-0.894000,-27.725000,15.573000,-21.878000,28.86
6.854813,0.617000,-0.218000,-0.991000,15.420000,-9.420000,-21.893000,28.77
6.862752,0.521000,-0.424000,-0.504000,-33.176000,17.450000,-12.687000,28.81
6.871458,0.441000,-0.345000,-0.897000,-22.718000,19.664000,-11.099000,28.81
6.881426,0.456000,-0.254000,-0.912000,-40.321000,2.382000,-5.756000,28.86
6.891390,0.474000,-0.192000,-0.935000,-31.832000,-11.588000,-1.450000,28.77
6.911891,0.445000,-0.087000,-0.967000,-30.870000,-15.282000,7.145000,28.81
6.912483,0.546000,-0.236000,-1.144000,-48.443000,-63.282000,13.115000,28.81
6.921461,0.470000,-0.179000,-0.870000,-43.206000,43.038000,-6.046000,28.86
6.931530,0.448000,-0.208000,-0.937000,-12.565000,10.763000,-8.779000,28.81
6.941396,0.430000,-0.289000,-0.743000,-13.053000,14.611000,-10.305000,28.72
6.951372,0.462000,-0.291000,-0.870000,-5.954000,12.137000,-19.420000,28.86
6.961437,0.436000,-0.241000,-0.896000,-27.832000,30.137000,-24.794000,28.77
6.978303,0.553000,-0.270000,-0.834000,-1.786000,25.756000,-33.450000,28.72
6.981412,0.376000,-0.229000,-0.909000,-2.580000,-12.885000,-49.771000,28.81
6.991713,0.469000,-0.167000,-0.783000,-3.649000,-24.321000,-93.756000,28.86
7.001382,0.559000,-0.190000,-0.706000,-31.084000,-23.954000,-29.420000,28.77
7.011879,0.497000,-0.115000,-0.812000,-56.244000,-4.824000,-17.298000,28.81
7.021436,0.448000,-0.155000,-0.970000,-52.275000,4.611000,-19.130000,28.72
7.037376,0.447000,-0.152000,-0.854000,-56.687000,13.069000,-19.344000,28.86
7.041617,0.499000,-0.139000,-0.996000,-21.420000,-8.229000,-25.435000,28.81
7.051412,0.511000,-0.083000,-0.935000,-26.992000,10.702000,-25.573000,28.81
7.061429,0.488000,-0.098000,-0.896000,-21.573000,6.565000,-22.519000,28.81
7.071451,0.492000,-0.094000,-0.906000,-28.290000,15.191000,-20.153000,28.77
7.081423,0.490000,-0.147000,-0.883000,-28.733000,16.901000,-20.427000,28.77
7.091404,0.477000,-0.131000,-0.846000,-29.282000,17.511000,-21.511000,28.81
7.101537,0.495000,-0.140000,-0.863000,-36.229000,30.580000,-24.092000,28.81
7.111615,0.696000,-0.188000,-0.855000,-28.748000,20.046000,-22.321000,28.86
7.121455,0.497000,-0.083000,-0.890000,-28.244000,33.802000,-27.863000,28.86
7.131419,0.492000,-0.225000,-0.858000,-32.107000,43.939000,-27.450000,28.81
7.143270,0.459000,-0.168000,-0.883000,-43.771000,56.137000,-29.786000,28.91
7.151413,0.465000,-0.139000,-0.842000,-53.985000,77.695000,-25.405000,28.86
7.161419,0.450000,-0.126000,-0.854000,-68.031000,102.076000,-24.611000,28.77
7.171481,0.516000,-0.088000,-0.899000,-79.450000,112.366000,-23.191000,28.72
7.181395,0.481000,-0.046000,-0.842000,-95.863000,146.229000,-25.802000,28.72
7.200176,0.467000,0.015000,-0.776000,-114.916000,179.221000,-27.954000,28.77
7.201436,0.395000,0.026000,-0.820000,-140.229000,206.550000,-35.557000,28.72
7.211470,0.578000,0.094000,-1.006000,-130.672000,220.977000,-40.733000,28.72
7.221429,0.461000,0.064000,-0.849000,-110.137000,218.229000,-45.435000,28.86
7.231442,0.490000,0.018000,-0.778000,-110.687000,236.809000,-54.260000,28.95
7.241772,0.796000,0.032000,-0.955000,-96.672000,221.939000,-28.565000,28.81
7.251480,0.710000,-0.162000,-0.980000,-77.267000,229.206000,29.573000,28.81
7.262259,0.826000,-0.096000,-0.909000,-69.145000,181.985000,124.397000,28.77
7.271514,1.393000,-0.177000,-1.046000,-81.389000,243.160000,29.511000,28.77
7.281475,0.502000,-0.316000,-0.766000,-72.275000,270.244000,-9.939000,28.81
7.291449,1.165000,-0.231000,-1.345000,-98.046000,332.840000,-61.481000,28.72
7.309032,1.381000,-0.137000,-1.670000,-140.962000,421.282000,-138.198000,28.77
7.311430,2.212000,-0.298000,-2.007000,-99.389000,500.260000,-199.695000,28.81
7.321390,2.415000,-0.652000,-2.197000,-16.962000,448.107000,-210.580000,28.81
7.339935,2.151000,-0.419000,-2.119000,-86.763000,439.618000,-270.733000,28.91
7.341539,1.429000,-0.363000,-2.312000,-103.664000,326.611000,-406.519000,28.86
7.351485,1.532000,-0.550000,-1.946000,-119.496000,191.130000,-234.580000,28.77
7.361466,-0.468000,-3.095000,-3.529000,48.870000,43.511000,-91.908000,28.81
7.371410,2.906000,-2.348000,-4.000000,-63.176000,78.901000,15.832000,28.81
7.382249,-0.622000,-2.568000,-1.151000,13.389000,-237.969000,34.855000,28.86
7.393062,-0.135000,-1.499000,-0.675000,-88.076000,-204.397000,61.557000,28.77
7.403384,0.068000,-0.978000,-1.627000,-24.611000,-281.527000,102.931000,28.81
7.412179,-0.126000,-0.841000,-1.271000,-42.718000,-231.130000,129.985000,28.81
7.423110,0.019000,-0.670000,-1.624000,20.107000,-294.397000,123.710000,28.86
7.431579,0.221000,-0.516000,-1.583000,49.435000,-312.183000,95.817000,28.72
7.441798,0.282000,-0.365000,-1.370000,57.863000,-282.824000,41.389000,28.81
7.452100,0.383000,-0.111000,-1.324000,59.771000,-268.382000,2.885000,28.77
7.462655,0.515000,0.013000,-1.230000,89.435000,-259.435000,-29.817000,28.86
7.474256,0.686000,0.017000,-1.087000,132.458000,-273.573000,-47.160000,28.81
7.481779,0.872000,-0.058000,-0.806000,164.901000,-281.817000,-51.802000,28.81
7.491680,1.080000,-0.281000,-0.764000,197.511000,-275.389000,-43.374000,28.77
7.501594,1.180000,-0.425000,-0.718000,185.466000,-238.550000,-24.443000,28.86
7.513350,1.223000,-0.472000,-0.582000,195.771000,-231.084000,-2.641000,28.81
7.521584,1.208000,-0.386000,-0.742000,210.351000,-215.786000,9.863000,28.72
7.531540,1.606000,-0.152000,-0.853000,226.931000,-165.206000,44.763000,28.67
7.548784,1.078000,-0.240000,-0.840000,236.076000,-183.405000,41.496000,28.77
7.551474,1.074000,0.337000,-0.631000,188.137000,-185.985000,89.496000,28.81
7.561547,0.997000,-0.194000,-1.257000,173.282000,-152.824000,119.328000,28.81
7.571587,1.389000,0.107000,-1.057000,160.656000,-114.122000,136.580000,28.86
7.581660,1.509000,0.047000,-1.161000,132.183000,-96.916000,150.153000,28.81
7.592002,1.633000,0.248000,-1.461000,148.321000,-97.786000,163.130000,28.72
7.608084,1.696000,0.583000,-1.201000,137.649000,-122.000000,170.916000,28.77
7.611685,1.692000,0.844000,-1.120000,137.664000,-135.679000,179.847000,28.86
7.621542,1.731000,1.048000,-1.255000,115.954000,-124.061000,175.359000,28.81
7.634804,1.866000,1.243000,-0.988000,67.985000,-161.450000,166.718000,28.81
7.641785,2.034000,1.519000,-1.224000,119.969000,-125.435000,136.092000,28.86
7.652292,2.107000,1.734000,-0.980000,110.244000,-145.145000,115.893000,28.86
7.661740,2.095000,1.829000,-0.768000,97.847000,-60.763000,67.115000,28.72
7.671929,2.365000,1.959000,-0.250000,185.740000,-163.649000,77.496000,28.81
7.682270,2.248000,1.944000,0.222000,152.824000,-279.908000,75.084000,28.77
7.692324,2.044000,2.237000,1.430000,98.122000,-79.985000,74.198000,28.72
7.702369,2.062000,2.078000,0.586000,115.634000,-214.855000,74.595000,28.81
7.712003,2.141000,1.788000,1.636000,111.740000,-222.992000,34.504000,28.91
7.722271,1.643000,1.966000,1.599000,-79.038000,354.809000,-60.427000,28.86
7.732119,2.386000,2.573000,0.576000,79.603000,-160.244000,2.305000,28.77
7.742209,2.075000,2.719000,1.124000,-131.038000,143.282000,-9.069000,28.91
7.752106,0.150000,0.635000,-1.174000,-3.603000,-9.023000,9.985000,28.72
7.762296,0.503000,0.038000,-2.870000,-93.679000,50.290000,-7.634000,28.77
7.772205,-0.462000,-0.635000,-1.780000,-4.168000,-85.038000,0.855000,28.81
7.782204,-0.412000,-0.437000,-0.248000,14.611000,-82.794000,-26.107000,28.81
7.792136,0.384000,-0.001000,0.101000,-2.748000,-18.977000,6.779000,28.86
7.802318,1.024000,0.130000,-1.779000,-63.130000,97.099000,-27.252000,28.86
7.812106,0.725000,0.748000,-2.510000,-12.595000,-5.496000,-16.748000,28.81
7.822114,0.460000,0.437000,-1.773000,-5.725000,-42.229000,-27.527000,28.81
7.832113,1.113000,-0.708000,-1.278000,-22.992000,-1.115000,-54.534000,28.77
7.842128,0.853000,-0.692000,-0.661000,-116.061000,146.595000,-41.008000,28.86
7.852255,0.573000,-0.335000,-1.315000,-56.992000,114.351000,-37.160000,28.81
7.861994,0.469000,-0.104000,-1.205000,-16.809000,59.130000,-37.145000,28.72
7.871991,0.764000,-0.474000,-0.983000,38.901000,64.244000,-72.046000,28.77
7.881914,0.810000,-0.557000,-0.725000,-27.969000,83.740000,-42.916000,28.77
7.891987,0.526000,-0.306000,-1.059000,-46.626000,70.122000,-36.000000,28.81
7.901771,0.357000,-0.290000,-0.819000,-32.214000,47.389000,-50.519000,28.81
7.916042,0.311000,-0.342000,-0.797000,-14.519000,31.176000,-55.649000,28.77
7.921543,0.410000,-0.327000,-0.785000,-44.305000,50.718000,-51.756000,28.81
7.931485,0.308000,-0.288000,-0.871000,-51.542000,-1.634000,-61.985000,28.81
7.941499,0.674000,-0.069000,-1.410000,-20.198000,33.053000,-47.527000,28.77
7.951551,0.381000,-0.190000,-0.860000,-46.534000,49.649000,-47.710000,28.77
7.961615,0.510000,-0.211000,-0.925000,-51.176000,0.641000,-11.435000,28.81
7.971516,0.510000,-0.222000,-0.766000,-49.099000,-35.008000,-1.924000,28.81
7.981525,0.521000,-0.229000,-0.843000,-52.962000,-89.603000,14.565000,28.86
7.991644,0.377000,-0.317000,-0.542000,-85.786000,-37.298000,3.176000,28.77
8.001688,0.490000,-0.291000,-0.873000,-103.740000,-44.656000,8.504000,28.81
8.011692,0.445000,-0.266000,-0.928000,-45.160000,-42.595000,-13.450000,28.81
8.021696,0.445000,-0.188000,-0.895000,-11.588000,-30.107000,-26.687000,28.77
8.031642,0.445000,-0.222000,-0.761000,-30.214000,-25.756000,-24.305000,28.77
8.041640,0.428000,-0.169000,-0.998000,-36.397000,7.985000,-28.840000,28.72
8.051720,0.399000,-0.151000,-0.936000,-23.756000,12.687000,-34.137000,28.81
8.061727,0.406000,-0.052000,-0.940000,-25.282000,8.519000,-28.092000,28.77
8.071677,0.396000,-0.082000,-0.913000,-21.069000,12.672000,-26.443000,28.81
8.081704,0.396000,-0.051000,-0.966000,-20.962000,20.565000,-23.145000,28.91
8.091784,0.428000,-0.058000,-0.896000,-22.947000,13.053000,-16.916000,28.67
8.101814,0.452000,-0.079000,-0.951000,-20.794000,6.779000,-13.527000,28.77
8.111838,0.408000,-0.116000,-0.906000,-18.305000,13.481000,-13.313000,28.72
8.121895,0.417000,-0.129000,-0.907000,-13.008000,6.168000,-11.130000,28.81
8.131797,0.405000,-0.104000,-0.902000,-18.656000,17.954000,-12.458000,28.77
8.141549,0.434000,-0.147000,-0.874000,-16.443000,22.031000,-15.466000,28.86
8.151820,0.445000,-0.141000,-0.892000,-22.504000,27.893000,-18.748000,28.72
8.161712,0.312000,-0.428000,-0.955000,-7.710000,37.206000,-29.802000,28.72
8.171691,0.367000,-0.063000,-0.923000,-39.496000,50.031000,-29.725000,28.86
8.181889,0.495000,-0.296000,-0.837000,-38.427000,55.481000,-32.901000,28.72
8.191444,0.480000,-0.231000,-0.920000,-59.649000,77.282000,-39.450000,28.81
8.201496,0.445000,-0.097000,-0.815000,-76.305000,102.412000,-37.511000,28.86
8.211419,0.465000,-0.053000,-0.917000,-82.885000,114.840000,-34.473000,28.77
8.221431,0.455000,-0.036000,-0.847000,-105.908000,138.840000,-28.809000,28.81
8.231413,0.452000,0.062000,-0.866000,-127.634000,157.466000,-25.924000,28.81
8.241424,0.378000,0.045000,-0.838000,-151.847000,181.939000,-29.038000,28.86
8.251422,0.370000,0.054000,-0.888000,-164.626000,221.053000,-31.954000,28.86
8.261405,0.465000,0.081000,-0.989000,-123.649000,208.366000,-38.672000,28.81
8.271418,0.394000,0.013000,-0.914000,-113.542000,207.939000,-43.557000,28.81
8.281378,0.658000,-0.081000,-0.857000,-87.008000,197.634000,-25.603000,28.77
8.291417,1.224000,0.032000,-1.214000,-25.863000,172.656000,113.542000,28.72
8.301590,0.488000,-0.389000,-0.864000,22.809000,159.130000,169.115000,28.81
8.311400,0.814000,-0.287000,-0.926000,-11.252000,208.305000,174.885000,28.81
8.321409,2.167000,-0.482000,-1.273000,-28.137000,338.626000,170.779000,28.77
8.338127,1.195000,-0.559000,-1.600000,-24.550000,290.290000,-16.656000,28.77
8.341415,1.207000,-0.271000,-1.718000,-10.962000,316.321000,-110.473000,28.72
8.351427,1.814000,-0.489000,-2.620000,-25.282000,423.603000,-163.893000,28.81
8.367972,1.645000,-0.324000,-2.131000,-45.237000,463.298000,-203.786000,28.86
8.371364,1.453000,-0.212000,-2.652000,-62.962000,500.260000,-277.954000,28.72
8.387722,0.440000,-0.996000,-2.807000,3.420000,376.641000,-252.092000,28.81
8.392080,-0.331000,-4.000000,-3.390000,125.191000,124.565000,-165.496000,28.77
8.404136,1.615000,-3.738000,-3.173000,11.542000,65.374000,-220.092000,28.77
8.413872,-0.336000,-2.707000,-1.744000,-55.786000,-238.122000,16.122000,28.72
8.425320,-1.041000,-1.640000,-1.422000,15.374000,-410.641000,28.198000,28.81
8.432181,-0.321000,-1.181000,-1.126000,-118.916000,-193.969000,73.924000,28.77
8.442209,-0.382000,-0.924000,-1.808000,19.542000,-245.664000,53.237000,28.77
8.452263,-0.374000,-1.174000,-2.104000,176.504000,-500.275000,60.458000,28.72
8.462229,0.131000,-0.918000,-1.142000,93.557000,-241.527000,49.191000,28.72
8.475118,0.048000,-0.717000,-0.813000,86.992000,-246.305000,14.458000,28.77
8.482265,0.408000,-0.626000,-0.947000,91.481000,-233.802000,7.954000,28.77
8.491780,0.554000,-0.485000,-0.917000,110.305000,-206.885000,-3.008000,28.81
8.502937,0.697000,-0.485000,-0.825000,94.870000,-147.786000,4.840000,28.81
8.512347,0.698000,-0.525000,-0.881000,146.061000,-179.206000,9.863000,28.77
8.522329,0.807000,-0.595000,-0.845000,137.511000,-128.275000,13.252000,28.77
8.532331,1.046000,-0.485000,-1.071000,178.046000,-148.824000,12.382000,28.81
8.542483,1.009000,-0.289000,-0.974000,168.687000,-121.710000,37.069000,28.77
8.551963,1.157000,-0.197000,-1.071000,202.244000,-179.405000,74.672000,28.77
8.562068,1.129000,-0.060000,-1.000000,177.588000,-137.756000,94.229000,28.72
8.572144,1.048000,-0.019000,-1.169000,180.046000,-135.664000,110.840000,28.72
8.581830,1.251000,0.068000,-1.147000,167.023000,-130.046000,125.344000,28.77
8.592084,1.302000,0.142000,-1.201000,176.901000,-139.832000,132.443000,28.77
8.602086,1.325000,0.188000,-1.221000,173.313000,-142.519000,138.229000,28.81
8.612129,1.369000,0.300000,-1.160000,158.809000,-144.702000,143.084000,28.81
8.621786,1.434000,0.427000,-1.086000,127.878000,-143.863000,147.466000,28.77
8.631843,1.452000,0.557000,-1.061000,111.313000,-149.191000,143.435000,28.86
8.641653,1.436000,0.690000,-0.965000,112.947000,-138.443000,124.397000,28.81
8.651957,1.527000,0.722000,-0.912000,117.740000,-109.771000,108.794000,28.81
8.661672,1.629000,0.773000,-0.887000,108.824000,-74.183000,96.015000,28.77
8.671795,1.753000,0.880000,-0.881000,101.985000,-51.771000,86.840000,28.72
8.681715,1.943000,1.012000,-0.795000,100.321000,-33.496000,81.878000,28.81
8.691797,1.904000,1.130000,-0.750000,80.733000,-20.565000,55.481000,28.77
8.701789,1.931000,1.286000,-0.683000,48.489000,-14.000000,42.473000,28.67
8.711777,1.841000,1.504000,-0.407000,19.817000,-32.107000,13.557000,28.81
8.725264,1.730000,1.537000,-0.332000,21.008000,-30.412000,4.931000,28.81
8.733852,1.675000,1.559000,-0.159000,36.214000,-27.725000,-10.718000,28.86
8.742229,1.569000,1.520000,0.110000,36.672000,-47.924000,-14.672000,28.77
8.751397,1.633000,1.386000,0.222000,3.435000,-61.710000,-2.901000,28.81
8.761437,1.668000,1.205000,-0.064000,-50.947000,-28.534000,4.931000,28.81
8.771400,2.062000,0.244000,0.529000,-60.489000,10.550000,20.076000,28.77
8.781402,1.809000,0.766000,0.499000,-125.573000,-32.763000,22.198000,28.91
8.791391,1.751000,1.701000,0.579000,-128.427000,-3.496000,33.496000,28.81
8.801552,0.052000,0.569000,-0.627000,-47.649000,44.809000,61.527000,28.81
8.811434,0.495000,0.307000,-2.351000,-49.038000,46.382000,48.672000,28.77
8.821472,-0.757000,0.604000,-2.022000,-21.954000,-16.427000,1.160000,28.72
8.831482,-0.829000,0.835000,-1.685000,8.779000,-20.626000,-54.137000,28.81
8.841466,0.287000,0.531000,-1.027000,0.779000,23.420000,-95.649000,28.86
8.851509,1.264000,0.068000,-1.785000,-4.137000,71.863000,-88.260000,28.77
8.861576,1.031000,-0.219000,-1.393000,-5.802000,44.061000,-72.534000,28.81
8.871610,0.754000,-0.249000,-1.222000,-26.626000,64.534000,-64.122000,28.81
8.881562,0.446000,-0.051000,-1.114000,-13.863000,72.794000,-61.130000,28.77
8.891587,0.505000,-0.149000,-1.095000,-8.901000,86.214000,-59.832000,28.81
8.901629,0.783000,-0.458000,-0.936000,7.450000,57.817000,-51.084000,28.81
8.911707,0.889000,-0.582000,-0.789000,-8.061000,68.580000,-47.405000,28.81
8.921684,0.715000,-0.227000,-1.472000,38.046000,299.160000,-75.084000,28.77
8.931642,0.600000,-0.325000,-1.216000,-10.992000,33.450000,-40.473000,28.81
8.941854,0.223000,-0.539000,-0.716000,-29.481000,-34.061000,-43.954000,28.72
8.951774,1.091000,-0.422000,-1.116000,-27.939000,-141.573000,-10.412000,28.77
8.961810,-0.273000,-0.395000,-0.438000,-58.244000,-107.115000,-61.725000,28.77
8.971811,0.438000,-0.434000,-0.881000,-65.450000,-64.015000,-5.542000,28.81
8.981678,0.447000,-0.284000,-0.898000,-55.649000,-64.824000,-8.198000,28.72
8.991800,0.268000,-0.128000,-0.945000,-48.718000,-67.145000,-25.023000,28.86
9.001874,0.479000,-0.206000,-0.915000,-56.809000,-43.069000,-19.206000,28.81
9.011809,0.488000,-0.127000,-1.088000,-70.366000,-15.420000,-21.374000,28.72
9.021898,0.430000,-0.102000,-0.990000,-50.092000,-26.107000,-16.885000,28.72
9.031828,0.571000,-0.206000,-0.998000,-78.824000,28.565000,-14.061000,28.77
9.041760,0.485000,-0.168000,-0.934000,-48.260000,-9.496000,-24.046000,28.72
9.051909,0.387000,-0.110000,-1.007000,-27.374000,-18.641000,-24.656000,28.72
9.061776,0.391000,-0.118000,-0.947000,-39.603000,-13.206000,-18.122000,28.77
9.071895,0.452000,-0.147000,-0.882000,-43.069000,-11.939000,-15.298000,28.77
9.081749,0.423000,-0.149000,-0.936000,-14.748000,-37.969000,-13.588000,28.72
9.092018,0.360000,-0.155000,-0.831000,-26.031000,-16.260000,-12.656000,28.81
9.101838,0.372000,-0.129000,-0.938000,-19.740000,-19.802000,-11.206000,28.77
9.111816,0.369000,-0.115000,-0.894000,-18.214000,-16.580000,-8.504000,28.81
9.121922,0.329000,-0.107000,-0.901000,-17.069000,-10.672000,-7.588000,28.81
9.131896,0.343000,-0.079000,-0.938000,-13.985000,-7.802000,-6.718000,28.72
9.141874,0.374000,-0.102000,-0.934000,-9.664000,-2.885000,-5.832000,28.67
9.151776,0.372000,-0.086000,-0.924000,-9.435000,3.374000,-5.496000,28.81
9.161912,0.344000,-0.112000,-0.915000,-10.901000,4.763000,-10.244000,28.81
9.171794,0.326000,-0.124000,-0.910000,-13.450000,11.237000,-10.641000,28.77
9.181890,0.348000,-0.127000,-0.915000,-18.107000,20.672000,-12.107000,28.67
9.191823,0.324000,-0.148000,-0.896000,-20.275000,28.687000,-12.305000,28.72
9.201773,0.356000,-0.159000,-0.912000,-22.885000,37.053000,-17.557000,28.81
9.211656,0.411000,-0.154000,-0.923000,-28.641000,45.695000,-22.198000,28.77
9.221899,0.202000,0.149000,-1.001000,-22.916000,42.458000,-45.985000,28.72
9.231852,0.312000,-0.066000,-0.893000,-64.992000,69.359000,-26.519000,28.72
9.241850,0.427000,-0.232000,-0.865000,-33.786000,67.023000,-32.412000,28.81
9.251830,0.408000,-0.125000,-0.941000,-72.931000,99.008000,-25.679000,28.67
9.261894,0.437000,-0.088000,-0.865000,-77.176000,104.351000,-24.427000,28.81
9.271759,0.400000,-0.036000,-0.895000,-109.802000,125.298000,-15.420000,28.72
9.281683,0.428000,-0.023000,-0.867000,-121.038000,149.771000,-14.031000,28.77
9.291887,0.329000,0.013000,-0.838000,-153.740000,183.176000,-15.420000,28.77
9.301762,0.323000,0.016000,-0.880000,-159.191000,206.061000,-21.298000,28.81
9.311738,0.350000,0.013000,-0.911000,-152.458000,220.412000,-27.863000,28.81
9.321879,0.405000,0.036000,-0.966000,-136.107000,228.977000,-41.008000,28.77
9.331711,0.500000,0.053000,-0.987000,-113.023000,236.321000,-59.481000,28.81
9.341873,0.406000,-0.028000,-0.973000,8.962000,233.893000,117.802000,28.81
9.351748,0.776000,-0.179000,-1.169000,51.954000,183.344000,141.313000,28.72
9.361669,0.931000,-0.635000,-1.194000,37.130000,235.206000,177.206000,28.77
9.371938,1.091000,-0.903000,-0.686000,-120.137000,342.382000,129.557000,28.72
9.381813,1.174000,-0.620000,-1.612000,-72.885000,284.580000,-64.519000,28.81
9.391833,1.588000,-0.556000,-2.146000,-95.389000,346.260000,-153.863000,28.67
9.401843,1.781000,-0.587000,-2.071000,-126.656000,410.824000,-221.664000,28.86
9.411804,1.442000,-0.908000,-2.447000,-137.817000,380.565000,-346.809000,28.91
9.421717,1.547000,-0.973000,-2.328000,-159.267000,392.489000,-383.130000,28.72
9.431889,-0.413000,-2.438000,-2.731000,-35.618000,114.031000,-153.557000,28.77
9.441809,0.507000,-3.859000,-2.824000,5.099000,94.687000,-97.435000,28.81
9.451891,0.208000,-2.846000,-2.087000,-90.809000,106.443000,13.634000,28.72
9.461609,-1.053000,-2.047000,-0.578000,-16.504000,-262.015000,98.382000,28.81
9.471738,-0.763000,-1.229000,-1.575000,-34.885000,-245.160000,100.763000,28.86
9.481907,-0.583000,-0.844000,-1.599000,52.626000,-265.084000,52.550000,28.77
9.492031,-0.574000,-0.771000,-1.657000,90.718000,-239.771000,35.069000,28.81
9.501784,-0.269000,-0.853000,-1.342000,140.748000,-291.832000,22.534000,28.81
9.511599,0.001000,-0.760000,-0.946000,109.221000,-252.305000,22.840000,28.86
9.521738,0.174000,-0.745000,-0.916000,104.824000,-235.939000,10.229000,28.81
9.531711,0.329000,-0.581000,-0.810000,103.420000,-206.427000,-6.885000,28.81
9.541762,0.527000,-0.519000,-0.840000,120.687000,-179.847000,-11.939000,28.86
9.551766,0.727000,-0.558000,-0.726000,139.588000,-176.229000,-0.840000,28.72
9.561678,0.777000,-0.605000,-0.736000,151.374000,-170.168000,28.290000,28.81
9.571748,0.864000,-0.566000,-0.753000,145.191000,-147.878000,45.237000,28.81
9.581839,0.906000,-0.525000,-0.853000,146.489000,-122.473000,62.412000,28.77
9.591851,0.959000,-0.425000,-0.996000,152.092000,-110.977000,74.916000,28.77
9.601755,0.988000,-0.297000,-1.033000,165.695000,-103.878000,87.130000,28.81
9.611723,1.082000,-0.191000,-1.305000,176.397000,-101.786000,102.000000,28.72
9.621929,0.899000,-0.227000,-1.325000,173.206000,-103.634000,119.481000,28.77
9.631795,1.180000,-0.176000,-1.313000,155.237000,35.847000,99.298000,28.72
9.641863,1.174000,0.200000,-1.789000,112.763000,67.695000,75.863000,28.81
9.651833,1.388000,0.417000,-2.082000,316.107000,-199.389000,121.420000,28.86
9.661872,1.101000,0.628000,-1.211000,238.443000,-149.832000,82.107000,28.72
9.671817,1.573000,0.799000,-1.674000,218.626000,-129.420000,149.908000,28.72
9.681893,1.488000,0.939000,-1.581000,230.321000,-144.092000,148.656000,28.81
9.691900,1.700000,0.982000,-1.612000,223.130000,-138.137000,126.779000,28.77
9.701817,1.923000,1.006000,-1.521000,205.664000,-154.550000,111.237000,28.67
9.711859,2.052000,1.160000,-1.241000,166.427000,-191.969000,116.901000,28.72
9.721795,1.991000,1.502000,-0.879000,86.656000,-208.824000,103.573000,28.81
9.731896,1.938000,1.781000,-0.672000,123.908000,-243.939000,92.718000,28.77
9.741827,1.842000,1.987000,-0.585000,111.557000,-192.794000,75.023000,28.77
9.751874,1.668000,2.037000,-0.183000,169.130000,-161.603000,63.374000,28.72
9.761848,1.843000,2.133000,0.193000,104.046000,-256.244000,69.893000,28.77
9.771685,1.741000,2.246000,0.381000,69.084000,-231.099000,48.046000,28.77
9.781569,1.795000,2.284000,0.277000,-73.969000,-13.115000,-0.015000,28.81
9.791444,2.059000,2.266000,0.297000,-49.939000,-41.893000,-29.023000,28.72
9.801486,2.275000,2.188000,0.829000,-109.374000,16.321000,-47.924000,28.77
9.811400,-0.534000,1.655000,1.005000,-113.756000,-47.771000,-48.031000,28.77
9.821416,0.761000,0.268000,-2.138000,-88.489000,199.099000,-35.802000,28.81
9.831406,-1.119000,-1.203000,-1.564000,-5.252000,22.763000,-51.466000,28.72
9.841527,-1.123000,-0.514000,0.107000,-23.252000,103.191000,-105.786000,28.77
9.851500,0.145000,0.375000,-0.229000,-86.733000,277.618000,-149.802000,28.77
9.861457,1.626000,1.157000,-3.252000,-33.649000,225.023000,-142.275000,28.72
9.871407,1.725000,0.637000,-2.917000,-73.649000,57.023000,-138.473000,28.77
9.881371,1.654000,-0.811000,-1.420000,2.733000,32.229000,-99.282000,28.77
9.891455,1.015000,-0.620000,-0.924000,-69.618000,90.641000,-59.603000,28.72
9.901442,0.488000,-0.146000,-1.308000,-38.901000,38.733000,-52.748000,28.81
9.911431,0.732000,-0.654000,-0.859000,-1.527000,-5.023000,-76.015000,28.67
9.921431,0.744000,-0.760000,-0.660000,17.115000,-53.344000,-81.191000,28.77
9.931424,0.516000,-0.337000,-0.994000,-20.611000,-60.015000,-72.916000,28.72
9.941514,0.569000,-0.356000,-1.118000,-20.092000,-64.076000,-90.855000,28.81
9.951554,0.532000,-0.304000,-0.938000,-51.466000,-54.763000,-70.534000,28.77
9.961582,0.493000,-0.269000,-1.036000,-75.450000,-44.473000,-45.969000,28.77
9.971573,0.282000,-0.077000,-1.028000,-59.053000,-41.557000,-30.550000,28.81
9.981641,0.402000,-0.053000,-1.064000,-52.107000,-25.939000,-17.939000,28.77
9.991588,0.391000,-0.043000,-0.979000,-43.695000,-4.321000,-13.863000,28.77
10.001668,0.393000,-0.072000,-1.052000,-23.221000,4.168000,-13.542000,28.72
