# Gait Analysis Data - MPU6050 IMU
# Duration: 10 seconds
# Format: timestamp(s),ax(g),ay(g),az(g),gx(deg/s),gy(deg/s),gz(deg/s),temp(C)
# Note: Document sensor placement (ankle/wrist) separately
timestamp,ax,ay,az,gx,gy,gz,temp
0.000649,0.587000,-0.208000,-0.795000,-16.840000,28.168000,-19.557000,29.57
0.001348,0.584000,-0.220000,-0.792000,-15.053000,30.229000,-21.191000,29.61
0.001951,0.540000,-0.182000,-0.814000,-11.756000,33.863000,-22.336000,29.52
0.002527,0.573000,-0.237000,-0.800000,-11.863000,38.015000,-21.847000,29.57
0.003095,0.531000,-0.119000,-0.819000,-10.870000,46.779000,-20.855000,29.66
0.003663,0.538000,-0.188000,-0.810000,-10.916000,58.275000,-18.107000,29.61
0.004398,0.502000,-0.158000,-0.838000,-8.977000,70.489000,-15.786000,29.52
0.005243,0.527000,-0.190000,-0.846000,-10.809000,89.786000,-13.282000,29.57
0.005839,0.551000,-0.192000,-0.824000,-10.595000,111.084000,-9.863000,29.57
0.006399,0.531000,-0.185000,-0.819000,-9.420000,133.786000,-9.069000,29.66
0.006978,0.531000,-0.226000,-0.812000,-13.344000,159.115000,-10.748000,29.52
0.007547,0.510000,-0.156000,-0.795000,-9.221000,182.412000,-17.847000,29.47
0.008108,0.556000,-0.169000,-0.763000,-9.817000,204.366000,-25.053000,29.57
0.008664,0.581000,-0.188000,-0.760000,-2.229000,220.168000,-29.725000,29.57
0.009233,0.517000,-0.168000,-0.762000,-0.916000,246.076000,-35.313000,29.52
0.009801,0.562000,-0.213000,-0.775000,-9.634000,266.275000,-44.672000,29.52
0.010479,0.605000,-0.200000,-0.904000,-18.000000,296.473000,-55.008000,29.57
0.011135,0.789000,-0.223000,-0.971000,-28.916000,318.107000,-71.008000,29.57
0.011726,0.865000,-0.312000,-1.136000,-35.252000,367.008000,-82.687000,29.52
0.012315,0.980000,-0.442000,-1.183000,-36.366000,383.756000,-85.679000,29.52
0.012889,1.467000,-0.282000,-1.292000,-8.947000,417.618000,-75.969000,29.57
0.013460,2.188000,-0.554000,-1.452000,61.206000,435.237000,-63.053000,29.57
0.014034,2.539000,-0.554000,-1.667000,108.855000,392.580000,-65.588000,29.52
0.014624,2.152000,-0.326000,-1.846000,79.237000,382.351000,-107.038000,29.61
0.015196,1.901000,-0.549000,-1.838000,24.901000,356.718000,-119.679000,29.57
0.015772,1.327000,-0.497000,-2.510000,2.824000,305.603000,-119.023000,29.57
0.016348,0.569000,-0.964000,-2.558000,-9.679000,147.130000,-79.252000,29.52
0.016897,0.667000,-3.556000,-3.894000,-24.198000,38.031000,-6.870000,29.61
0.017475,0.356000,-1.692000,-3.363000,-179.786000,-157.664000,-15.145000,29.57
0.018062,-1.608000,-1.054000,-1.040000,-194.397000,-141.160000,-27.023000,29.57
0.018639,-0.388000,-0.718000,-1.732000,-145.756000,-203.053000,-32.397000,29.57
0.019210,-0.091000,-0.758000,-1.888000,-99.954000,-245.511000,-28.611000,29.61
0.019778,-0.141000,-0.876000,-1.715000,-68.947000,-273.145000,-26.504000,29.57
0.020442,-0.034000,-0.806000,-1.474000,-59.420000,-299.817000,-37.221000,29.47
0.021253,-0.016000,-0.581000,-1.206000,-48.305000,-318.595000,-53.954000,29.66
0.021916,0.070000,-0.371000,-1.044000,-19.405000,-330.244000,-68.656000,29.52
0.022553,0.213000,-0.265000,-0.948000,20.397000,-335.115000,-75.863000,29.52
0.023182,0.374000,-0.328000,-0.858000,58.046000,-336.153000,-77.267000,29.57
0.023819,0.505000,-0.464000,-0.825000,86.779000,-331.313000,-74.000000,29.47
0.024456,0.705000,-0.590000,-0.854000,109.389000,-323.313000,-63.878000,29.61
0.025083,0.875000,-0.677000,-0.895000,126.427000,-317.924000,-49.099000,29.52
0.025712,1.019000,-0.715000,-0.938000,137.588000,-315.634000,-30.214000,29.66
0.026332,1.094000,-0.665000,-0.884000,149.008000,-309.710000,-8.061000,29.57
0.027106,1.224000,-0.663000,-0.915000,157.985000,-301.176000,17.435000,29.52
0.027965,1.362000,-0.634000,-0.926000,160.794000,-287.420000,45.847000,29.61
0.028660,1.494000,-0.692000,-0.977000,153.695000,-275.023000,75.298000,29.66
0.029438,1.503000,-0.672000,-0.928000,139.771000,-258.885000,105.939000,29.57
0.030170,1.498000,-0.594000,-0.938000,125.603000,-231.389000,138.580000,29.57
0.030880,1.519000,-0.395000,-1.122000,119.542000,-203.817000,168.183000,29.61
0.031540,1.707000,-0.109000,-1.269000,123.069000,-179.573000,190.992000,29.61
0.032348,1.908000,0.171000,-1.293000,122.305000,-161.374000,199.649000,29.57
0.033048,1.915000,0.289000,-1.051000,112.153000,-153.527000,194.427000,29.66
0.033669,2.568000,0.171000,-0.682000,82.015000,-95.847000,178.183000,29.61
0.034312,2.083000,0.915000,-0.186000,94.198000,-64.260000,146.000000,29.57
0.034941,2.590000,1.075000,-1.272000,125.527000,-89.405000,121.908000,29.57
0.035570,2.985000,1.342000,-1.473000,162.458000,-123.115000,106.214000,29.57
0.036190,2.945000,1.241000,-0.851000,216.931000,-189.466000,88.550000,29.52
0.036807,2.354000,1.275000,-0.182000,192.122000,-166.733000,62.718000,29.52
0.037425,2.321000,1.310000,0.146000,184.748000,-163.252000,37.328000,29.57
0.038054,2.401000,1.103000,0.395000,162.702000,-144.015000,21.435000,29.57
0.038652,2.324000,0.938000,0.624000,120.947000,-108.458000,7.496000,29.52
0.039204,2.257000,0.826000,0.703000,73.740000,-75.740000,0.947000,29.61
0.039745,2.349000,0.345000,0.998000,-24.275000,-7.450000,1.802000,29.57
0.040327,1.897000,0.546000,1.236000,-126.962000,28.702000,-8.382000,29.66
0.040946,2.245000,1.708000,0.920000,-151.496000,75.939000,-28.901000,29.52
0.041538,-0.077000,0.537000,-0.398000,-88.168000,76.534000,-15.450000,29.52
0.042104,1.229000,-0.530000,-2.017000,-72.962000,93.115000,-6.000000,29.52
0.042698,-0.307000,-0.332000,-1.849000,-62.275000,41.191000,-33.649000,29.47
0.043426,-0.494000,-0.416000,-0.482000,-68.656000,61.878000,-76.824000,29.57
0.044196,0.024000,0.396000,-0.307000,-26.824000,137.221000,-79.557000,29.52
0.044790,1.122000,0.262000,-1.415000,-1.450000,165.252000,-74.931000,29.61
0.045363,1.354000,0.456000,-2.317000,18.275000,170.824000,-64.366000,29.57
0.045924,1.089000,0.217000,-1.888000,21.344000,83.985000,-85.374000,29.47
0.046568,1.231000,-0.826000,-1.291000,1.466000,81.328000,-71.939000,29.52
0.047207,0.809000,-0.829000,-0.770000,-7.527000,76.214000,-48.122000,29.57
0.047786,0.571000,-0.310000,-0.949000,-12.458000,74.824000,-45.267000,29.66
0.048349,0.494000,-0.078000,-0.939000,-17.237000,57.664000,-44.290000,29.57
0.048921,0.752000,-0.502000,-0.832000,-21.756000,41.344000,-37.359000,29.61
0.049493,0.732000,-0.650000,-0.773000,-31.557000,31.710000,-29.023000,29.52
0.050060,0.529000,-0.478000,-0.833000,-40.473000,23.786000,-28.916000,29.66
0.050587,0.589000,-0.476000,-0.892000,-52.107000,20.000000,-30.626000,29.57
0.051099,0.539000,-0.512000,-0.787000,-64.153000,17.466000,-32.534000,29.71
0.051610,0.502000,-0.480000,-0.802000,-73.710000,19.282000,-35.206000,29.52
0.052125,0.493000,-0.454000,-0.854000,-78.366000,19.344000,-36.992000,29.52
0.052641,0.496000,-0.366000,-0.886000,-78.885000,21.282000,-38.275000,29.66
0.053158,0.585000,-0.257000,-1.055000,-74.244000,24.519000,-36.519000,29.47
0.053679,0.504000,-0.174000,-0.897000,-59.466000,18.962000,-33.389000,29.61
0.054302,0.518000,-0.291000,-0.884000,-52.351000,18.870000,-33.023000,29.52
0.054976,0.530000,-0.228000,-0.867000,-47.069000,18.519000,-32.443000,29.57
0.055500,0.501000,-0.242000,-0.842000,-39.573000,18.992000,-30.901000,29.66
0.056054,0.520000,-0.123000,-0.880000,-33.527000,26.779000,-27.969000,29.52
0.056652,0.528000,-0.206000,-0.886000,-28.427000,21.588000,-26.382000,29.52
0.057201,0.521000,-0.226000,-0.839000,-29.618000,19.206000,-27.206000,29.66
0.057714,0.548000,-0.263000,-0.824000,-31.053000,14.595000,-29.237000,29.57
0.058239,0.541000,-0.256000,-0.799000,-33.038000,9.603000,-30.931000,29.57
0.058750,0.530000,-0.232000,-0.832000,-34.351000,5.817000,-32.626000,29.52
0.059259,0.540000,-0.206000,-0.837000,-34.305000,3.832000,-33.221000,29.52
0.059768,0.539000,-0.187000,-0.836000,-31.847000,2.824000,-33.145000,29.57
0.060264,0.536000,-0.158000,-0.833000,-30.687000,4.779000,-32.351000,29.57
0.060737,0.536000,-0.130000,-0.870000,-29.344000,6.748000,-30.382000,29.52
0.061218,0.544000,-0.113000,-0.844000,-27.237000,10.565000,-27.282000,29.57
0.061691,0.551000,-0.087000,-0.852000,-23.435000,13.038000,-23.802000,29.47
0.062160,0.561000,-0.101000,-0.840000,-19.878000,17.191000,-19.817000,29.57
0.062643,0.485000,-0.090000,-0.866000,-15.679000,18.061000,-21.084000,29.61
0.063123,0.541000,-0.187000,-0.820000,-16.061000,22.076000,-20.794000,29.52
0.063646,0.502000,-0.174000,-0.799000,-18.351000,30.321000,-20.565000,29.66
0.064127,0.520000,-0.137000,-0.842000,-18.473000,32.458000,-20.031000,29.66
0.064599,0.537000,-0.151000,-0.862000,-19.634000,35.939000,-19.832000,29.52
0.065073,0.534000,-0.213000,-0.860000,-22.107000,40.977000,-20.733000,29.52
0.065550,0.568000,-0.225000,-0.884000,-26.702000,48.824000,-21.389000,29.57
0.066027,0.577000,-0.200000,-0.872000,-30.626000,58.214000,-21.847000,29.47
0.066611,0.520000,-0.177000,-0.850000,-31.756000,72.733000,-22.351000,29.61
0.067281,0.524000,-0.160000,-0.856000,-32.977000,89.985000,-22.183000,29.61
0.067792,0.521000,-0.137000,-0.871000,-36.107000,109.191000,-22.702000,29.66
0.068275,0.531000,-0.092000,-0.873000,-35.145000,131.878000,-25.679000,29.57
0.068750,0.510000,0.060000,-0.892000,-21.557000,156.809000,-33.206000,29.61
0.069223,0.378000,-0.026000,-0.846000,-26.840000,189.802000,-43.435000,29.61
0.069709,0.583000,-0.018000,-0.901000,-12.885000,196.565000,-48.718000,29.57
0.070171,0.592000,0.061000,-0.871000,1.649000,218.748000,-47.145000,29.57
0.070623,0.609000,0.031000,-0.858000,24.748000,220.748000,-48.611000,29.61
0.071080,0.678000,-0.083000,-0.845000,26.595000,237.038000,-54.397000,29.52
0.071534,0.871000,-0.066000,-0.914000,21.725000,241.435000,-61.145000,29.47
0.071991,0.847000,-0.243000,-0.973000,7.908000,257.573000,-68.901000,29.57
0.072446,0.988000,-0.318000,-1.067000,-5.878000,270.824000,-81.099000,29.71
0.072902,1.223000,-0.352000,-1.190000,-13.328000,270.290000,-91.893000,29.61
0.073355,1.611000,-0.524000,-1.395000,-5.832000,261.237000,-99.481000,29.52
0.073808,1.542000,-0.396000,-1.368000,-3.344000,239.313000,-116.550000,29.57
0.074268,1.309000,-0.549000,-1.254000,-6.550000,210.382000,-126.534000,29.57
0.074728,1.323000,-0.559000,-1.342000,-24.183000,155.771000,-125.038000,29.61
0.075179,-0.114000,-1.328000,-2.484000,1.405000,70.168000,-82.214000,29.52
0.075635,0.242000,-1.445000,-1.921000,-31.786000,-7.786000,-56.412000,29.57
0.076092,-0.013000,-1.363000,-1.319000,-65.954000,-30.305000,-62.672000,29.57
0.076659,-0.283000,-1.002000,-0.815000,-88.366000,-49.710000,-55.191000,29.52
0.077285,0.262000,-0.950000,-1.364000,-73.191000,-68.427000,-41.084000,29.52
0.077762,0.225000,-0.878000,-1.254000,-53.496000,-111.389000,-20.916000,29.57
0.078230,0.079000,-0.871000,-0.903000,-43.328000,-126.336000,-9.206000,29.57
0.078680,0.046000,-0.733000,-0.697000,-40.718000,-137.954000,-6.504000,29.61
0.079141,0.038000,-0.555000,-0.599000,-32.534000,-139.557000,-5.511000,29.47
0.079603,0.103000,-0.409000,-0.628000,-9.618000,-139.771000,-3.053000,29.66
0.080093,0.192000,-0.379000,-0.689000,19.756000,-142.168000,1.298000,29.57
0.080552,0.263000,-0.457000,-0.725000,46.183000,-145.969000,6.122000,29.61
0.080995,0.321000,-0.477000,-0.720000,65.481000,-150.260000,11.924000,29.52
0.081437,0.369000,-0.482000,-0.730000,78.565000,-149.344000,19.084000,29.57
0.081878,0.420000,-0.433000,-0.712000,89.191000,-146.794000,28.779000,29.47
0.082327,0.484000,-0.355000,-0.708000,100.305000,-142.992000,41.221000,29.52
0.082772,0.557000,-0.292000,-0.740000,112.626000,-137.710000,54.580000,29.61
0.083217,0.685000,-0.174000,-0.845000,129.084000,-134.916000,68.092000,29.52
0.083671,0.790000,-0.039000,-0.966000,144.550000,-133.939000,82.412000,29.66
0.084107,0.852000,0.071000,-1.063000,156.183000,-138.626000,91.740000,29.47
0.084550,0.888000,0.256000,-1.080000,162.473000,-146.565000,93.221000,29.52
0.084991,0.975000,0.413000,-1.115000,162.290000,-148.153000,85.740000,29.52
0.085428,0.941000,0.814000,-1.274000,157.466000,-138.962000,67.328000,29.57
0.085869,1.342000,0.636000,-1.137000,158.794000,-153.939000,48.580000,29.57
0.086299,1.575000,0.663000,-1.013000,172.672000,-172.870000,30.794000,29.61
0.086813,1.617000,0.606000,-0.816000,172.977000,-172.931000,18.687000,29.52
0.087401,1.608000,0.500000,-0.646000,161.359000,-163.252000,11.374000,29.47
0.087866,1.664000,0.457000,-0.563000,144.382000,-149.985000,10.550000,29.57
0.088322,1.708000,0.463000,-0.532000,129.679000,-136.427000,13.389000,29.61
0.088823,1.723000,0.481000,-0.507000,119.908000,-125.786000,16.687000,29.52
0.089405,1.587000,0.610000,-0.390000,115.557000,-114.763000,16.382000,29.47
0.089876,1.353000,0.846000,-0.229000,117.603000,-93.847000,8.015000,29.57
0.090329,1.187000,1.028000,-0.127000,124.489000,-68.748000,-10.031000,29.57
0.090791,1.086000,1.061000,-0.146000,123.359000,-45.206000,-32.870000,29.52
0.091236,1.042000,0.994000,-0.193000,116.366000,-11.374000,-57.130000,29.57
0.091673,1.220000,0.917000,-0.433000,109.924000,11.618000,-70.504000,29.57
0.092107,1.310000,0.837000,-0.527000,113.237000,24.061000,-72.809000,29.57
0.092538,1.396000,0.150000,-0.414000,50.122000,40.824000,-86.504000,29.52
0.092975,1.519000,0.762000,-0.409000,-64.458000,-1.008000,-156.412000,29.52
0.093411,1.664000,0.851000,0.598000,-76.443000,20.183000,-149.847000,29.47
0.093844,1.369000,1.489000,-0.582000,-86.748000,-61.679000,-185.542000,29.57
0.094292,1.645000,-0.732000,-0.738000,-85.344000,-79.603000,-126.183000,29.61
0.094728,1.127000,-0.691000,-0.574000,-80.565000,-94.580000,-62.168000,29.61
0.095170,0.187000,0.588000,-0.731000,-74.351000,-41.160000,-54.702000,29.66
0.095608,0.454000,0.602000,-1.924000,-67.176000,-44.733000,-42.351000,29.57
0.096048,0.465000,-0.323000,-0.877000,-46.290000,-23.038000,-26.947000,29.52
0.096487,0.642000,-0.485000,-1.005000,-45.847000,15.328000,-23.527000,29.61
0.096917,0.467000,0.117000,-1.097000,-32.061000,3.115000,-20.962000,29.52
0.097360,0.554000,0.034000,-1.001000,-14.824000,12.168000,-13.847000,29.57
0.097785,0.572000,-0.173000,-0.849000,-8.122000,13.389000,-8.962000,29.57
0.098210,0.557000,-0.154000,-0.843000,-4.489000,12.153000,-6.672000,29.61
0.098637,0.523000,-0.172000,-0.824000,-2.626000,9.679000,-5.511000,29.61
0.099148,0.551000,-0.195000,-0.816000,0.244000,6.992000,-4.641000,29.57
0.099738,0.538000,-0.179000,-0.849000,1.893000,5.863000,-3.359000,29.57
0.100215,0.541000,-0.178000,-0.853000,3.038000,5.924000,-2.015000,29.52
0.100648,0.524000,-0.184000,-0.829000,4.321000,6.672000,-0.855000,29.66
0.101074,0.496000,-0.199000,-0.838000,5.939000,7.450000,-0.885000,29.57
0.101489,0.516000,-0.215000,-0.839000,5.542000,7.725000,-1.252000,29.57
0.101907,0.525000,-0.192000,-0.837000,4.351000,8.260000,-1.420000,29.52
0.102321,0.525000,-0.164000,-0.852000,4.580000,9.420000,-0.702000,29.61
0.102750,0.533000,-0.167000,-0.850000,5.099000,9.679000,1.069000,29.57
0.103170,0.535000,-0.155000,-0.866000,6.229000,8.748000,2.748000,29.66
0.103585,0.530000,-0.166000,-0.858000,6.733000,8.656000,4.168000,29.52
0.103999,0.534000,-0.183000,-0.842000,7.786000,8.550000,5.160000,29.61
0.104420,0.540000,-0.186000,-0.846000,8.656000,8.260000,6.015000,29.57
0.104840,0.549000,-0.201000,-0.841000,8.351000,7.985000,6.214000,29.57
0.105253,0.542000,-0.231000,-0.840000,7.237000,7.267000,6.351000,29.52
0.105665,0.539000,-0.228000,-0.825000,6.137000,6.427000,5.863000,29.61
0.106090,0.535000,-0.220000,-0.829000,4.290000,5.557000,5.405000,29.57
0.106512,0.535000,-0.213000,-0.828000,3.221000,4.733000,5.099000,29.57
0.106934,0.522000,-0.196000,-0.825000,3.344000,4.595000,5.573000,29.66
0.107346,0.514000,-0.207000,-0.831000,3.420000,4.489000,5.481000,29.52
0.107768,0.513000,-0.215000,-0.831000,3.588000,4.916000,5.130000,29.61
0.108183,0.513000,-0.211000,-0.831000,3.359000,5.267000,4.870000,29.47
0.108594,0.522000,-0.216000,-0.823000,3.527000,4.702000,4.824000,29.57
0.109000,0.525000,-0.210000,-0.820000,4.061000,4.519000,4.992000,29.52
0.109523,0.518000,-0.204000,-0.817000,4.321000,3.924000,5.221000,29.57
0.110167,0.519000,-0.214000,-0.820000,5.374000,2.687000,5.527000,29.57
0.110671,0.526000,-0.208000,-0.825000,6.031000,2.076000,5.863000,29.57
0.111125,0.521000,-0.193000,-0.821000,7.237000,1.908000,6.366000,29.61
0.111571,0.519000,-0.211000,-0.828000,7.740000,1.649000,6.641000,29.52
0.112048,0.524000,-0.213000,-0.837000,8.580000,1.573000,7.069000,29.57
0.112508,0.526000,-0.205000,-0.834000,10.031000,0.779000,7.618000,29.57
0.112957,0.513000,-0.209000,-0.832000,10.458000,0.656000,7.924000,29.52
0.113441,0.508000,-0.216000,-0.819000,10.794000,-0.153000,7.542000,29.61
0.113934,0.520000,-0.222000,-0.833000,10.977000,-1.145000,7.420000,29.57
0.114416,0.518000,-0.238000,-0.829000,10.702000,-2.489000,7.084000,29.57
0.114846,0.515000,-0.242000,-0.822000,11.145000,-3.527000,6.641000,29.52
0.115268,0.505000,-0.245000,-0.813000,10.977000,-4.092000,6.489000,29.52
0.115690,0.497000,-0.263000,-0.813000,10.229000,-3.725000,5.634000,29.57
0.116112,0.500000,-0.275000,-0.809000,9.069000,-2.687000,4.840000,29.57
0.116520,0.514000,-0.262000,-0.840000,9.099000,-0.916000,4.901000,29.52
0.116942,0.514000,-0.254000,-0.838000,9.634000,-0.656000,5.008000,29.61
0.117357,0.522000,-0.278000,-0.849000,10.153000,0.962000,5.145000,29.47
0.117767,0.520000,-0.261000,-0.844000,11.893000,0.229000,5.084000,29.57
0.118174,0.528000,-0.273000,-0.859000,12.397000,1.924000,5.710000,29.52
0.118597,0.510000,-0.267000,-0.815000,11.664000,1.527000,5.374000,29.52
0.119028,0.526000,-0.293000,-0.821000,11.649000,1.588000,5.069000,29.57
0.119550,0.514000,-0.271000,-0.818000,11.466000,0.290000,4.733000,29.57
0.120115,0.511000,-0.296000,-0.812000,9.542000,-0.122000,3.603000,29.57
0.120540,0.533000,-0.310000,-0.833000,9.038000,0.137000,3.069000,29.52
0.120946,0.508000,-0.279000,-0.817000,8.977000,-0.092000,2.626000,29.52
0.121353,0.506000,-0.288000,-0.797000,7.847000,-0.275000,2.214000,29.57
0.121761,0.500000,-0.294000,-0.800000,5.771000,-0.626000,1.191000,29.66
0.122187,0.482000,-0.295000,-0.800000,4.290000,-0.626000,0.305000,29.52
0.122612,0.492000,-0.281000,-0.824000,3.405000,0.092000,0.107000,29.61
0.123021,0.508000,-0.285000,-0.850000,4.504000,0.855000,0.443000,29.47
0.123420,0.522000,-0.269000,-0.857000,8.519000,0.244000,2.198000,29.47
0.123839,0.499000,-0.249000,-0.830000,10.412000,-0.076000,3.282000,29.61
0.124257,0.503000,-0.277000,-0.839000,11.863000,-1.588000,4.275000,29.52
0.124672,0.478000,-0.276000,-0.818000,11.267000,-1.542000,4.214000,29.66
0.125084,0.480000,-0.300000,-0.809000,9.282000,-0.519000,3.496000,29.57
0.125497,0.485000,-0.322000,-0.822000,7.924000,0.489000,3.145000,29.52
0.125908,0.510000,-0.318000,-0.837000,8.947000,0.153000,3.664000,29.66
0.126318,0.509000,-0.297000,-0.834000,9.496000,-0.809000,3.863000,29.47
0.126728,0.508000,-0.295000,-0.812000,10.489000,-2.901000,4.183000,29.57
0.127143,0.497000,-0.299000,-0.809000,10.626000,-4.244000,4.626000,29.61
0.127561,0.500000,-0.296000,-0.815000,11.847000,-5.298000,5.450000,29.52
0.127983,0.519000,-0.279000,-0.823000,13.145000,-5.679000,6.580000,29.57
0.128392,0.531000,-0.278000,-0.853000,14.748000,-6.916000,8.366000,29.66
0.128807,0.520000,-0.234000,-0.843000,16.550000,-8.687000,10.076000,29.52
0.129333,0.502000,-0.234000,-0.854000,18.901000,-8.763000,11.313000,29.61
0.129981,0.469000,-0.269000,-0.870000,21.542000,-10.198000,12.336000,29.47
0.130484,0.472000,-0.231000,-0.860000,23.847000,-11.023000,12.229000,29.57
0.130948,0.409000,-0.232000,-0.825000,25.176000,-11.023000,9.908000,29.52
0.131421,0.374000,-0.218000,-0.863000,27.511000,-11.557000,5.420000,29.61
0.131894,0.383000,-0.219000,-0.853000,28.305000,-11.710000,-0.336000,29.57
0.132336,0.384000,-0.195000,-0.872000,29.618000,-13.954000,-10.763000,29.57
0.132771,0.413000,-0.132000,-0.913000,27.664000,-18.214000,-26.351000,29.61
0.133196,0.369000,0.030000,-0.967000,28.305000,-24.733000,-50.198000,29.52
0.133628,0.373000,0.186000,-1.078000,31.618000,-35.176000,-79.191000,29.57
0.134060,0.407000,0.320000,-1.136000,35.603000,-49.603000,-113.878000,29.57
0.134487,0.480000,0.358000,-1.152000,43.786000,-65.695000,-148.290000,29.57
0.134922,0.561000,0.456000,-1.098000,55.145000,-80.595000,-184.611000,29.52
0.135349,0.766000,0.455000,-1.136000,61.847000,-98.031000,-217.450000,29.47
0.135776,0.884000,0.215000,-0.806000,70.061000,-105.374000,-235.985000,29.57
0.136211,0.873000,0.235000,-0.594000,71.313000,-106.672000,-256.977000,29.47
0.136636,0.906000,0.274000,-0.439000,73.786000,-101.496000,-278.931000,29.61
0.137079,0.842000,0.312000,-0.433000,71.053000,-100.733000,-308.031000,29.52
0.137514,0.838000,0.237000,-0.571000,56.290000,-92.992000,-339.573000,29.57
0.137949,0.956000,0.368000,-0.626000,62.641000,-81.710000,-367.740000,29.66
0.138409,0.994000,0.327000,-0.584000,77.771000,-68.733000,-392.962000,29.61
0.138855,1.094000,0.268000,-0.617000,104.901000,-53.588000,-415.878000,29.61
0.139367,1.143000,0.086000,-0.801000,135.038000,-59.985000,-428.122000,29.66
0.140035,1.386000,-0.074000,-0.753000,145.191000,-58.489000,-431.710000,29.57
0.140530,1.389000,-0.183000,-0.723000,162.992000,-69.710000,-425.725000,29.52
0.140990,1.404000,-0.245000,-0.753000,180.229000,-80.626000,-412.137000,29.61
0.141438,1.301000,-0.206000,-0.622000,193.649000,-90.397000,-395.450000,29.57
0.141893,1.222000,-0.160000,-0.439000,215.206000,-89.634000,-375.450000,29.57
0.142342,1.064000,-0.238000,-0.234000,222.748000,-81.084000,-360.947000,29.52
0.142793,0.984000,-0.317000,-0.131000,210.794000,-66.916000,-352.534000,29.47
0.143238,1.028000,-0.365000,-0.230000,187.557000,-50.519000,-345.008000,29.57
0.143681,1.025000,-0.361000,-0.348000,167.634000,-37.053000,-334.214000,29.57
0.144134,1.031000,-0.349000,-0.436000,155.359000,-28.641000,-317.160000,29.61
0.144590,1.009000,-0.399000,-0.500000,145.084000,-24.351000,-295.756000,29.52
0.145084,0.939000,-0.387000,-0.514000,132.489000,-21.511000,-272.656000,29.57
0.145573,0.896000,-0.400000,-0.571000,120.412000,-17.542000,-247.710000,29.57
0.146039,0.875000,-0.354000,-0.609000,112.947000,-15.313000,-223.176000,29.61
0.146552,0.905000,-0.395000,-0.735000,110.824000,-17.053000,-198.015000,29.61
0.147044,0.911000,-0.330000,-0.825000,110.534000,-24.504000,-172.977000,29.57
0.147500,0.785000,-0.293000,-0.701000,102.504000,-29.710000,-154.672000,29.57
0.147925,0.623000,-0.318000,-0.574000,79.252000,-28.824000,-145.328000,29.52
0.148370,0.535000,-0.260000,-0.557000,53.924000,-25.176000,-140.794000,29.61
0.148801,0.818000,0.065000,-0.894000,77.176000,-12.214000,-117.252000,29.66
0.149336,0.404000,-0.479000,-0.835000,95.176000,-32.076000,-90.901000,29.47
0.149935,0.274000,-1.033000,-0.718000,80.565000,-24.992000,-61.420000,29.47
0.150449,0.114000,-1.070000,-0.756000,71.649000,-24.626000,-22.168000,29.61
0.150959,0.023000,-1.209000,-0.863000,90.092000,-22.458000,26.962000,29.61
0.151434,0.266000,-1.880000,-1.136000,78.260000,-44.290000,69.802000,29.57
0.151898,0.183000,-2.155000,-0.368000,18.992000,-33.527000,27.756000,29.47
0.152357,-0.133000,-0.769000,-0.377000,-0.702000,-12.824000,-3.634000,29.61
0.152805,0.706000,-0.322000,-1.229000,-21.221000,0.168000,-8.962000,29.57
0.153230,0.466000,0.324000,-1.152000,-7.481000,2.000000,1.450000,29.57
0.153648,0.444000,0.121000,-0.972000,-0.992000,6.061000,4.565000,29.57
0.154074,0.509000,-0.465000,-0.827000,1.313000,-3.206000,3.359000,29.52
0.154520,0.382000,-0.433000,-0.673000,-10.122000,5.832000,-3.374000,29.61
0.155083,0.486000,-0.241000,-0.855000,-19.328000,12.855000,-9.023000,29.57
0.155543,0.484000,-0.258000,-0.731000,-25.939000,11.130000,-12.244000,29.57
0.155972,0.550000,-0.266000,-0.833000,-25.603000,4.809000,-12.794000,29.61
0.156393,0.552000,-0.093000,-0.911000,-20.534000,1.954000,-10.718000,29.52
0.156817,0.525000,-0.047000,-0.927000,-10.534000,-2.061000,-5.588000,29.66
0.157231,0.472000,-0.072000,-0.896000,-3.710000,-2.244000,-1.969000,29.66
0.157643,0.444000,-0.094000,-0.876000,1.878000,0.931000,-0.031000,29.52
0.158068,0.437000,-0.080000,-0.892000,6.885000,4.977000,1.389000,29.61
0.158485,0.468000,-0.054000,-0.889000,12.992000,6.550000,3.603000,29.57
0.158893,0.477000,-0.125000,-0.885000,17.710000,7.756000,5.221000,29.57
0.159309,0.481000,-0.201000,-0.860000,20.031000,8.992000,6.031000,29.52
0.159859,0.478000,-0.200000,-0.854000,19.802000,9.725000,5.863000,29.47
0.160496,0.482000,-0.210000,-0.858000,19.191000,10.458000,6.641000,29.57
0.160935,0.489000,-0.230000,-0.845000,17.908000,9.420000,6.290000,29.47
0.161348,0.493000,-0.256000,-0.847000,14.992000,7.695000,5.527000,29.61
0.161755,0.502000,-0.250000,-0.834000,12.473000,5.802000,4.290000,29.61
0.162173,0.497000,-0.251000,-0.847000,11.023000,5.786000,3.023000,29.57
0.162580,0.486000,-0.230000,-0.854000,9.084000,7.145000,1.969000,29.66
0.163013,0.470000,-0.223000,-0.853000,8.977000,7.206000,1.176000,29.52
0.163430,0.466000,-0.213000,-0.865000,8.351000,8.351000,0.901000,29.52
0.163877,0.492000,-0.211000,-0.872000,8.458000,9.710000,1.618000,29.57
0.164299,0.509000,-0.199000,-0.876000,9.252000,10.336000,3.023000,29.57
0.164713,0.506000,-0.213000,-0.866000,10.595000,10.168000,4.382000,29.61
0.165137,0.510000,-0.237000,-0.865000,10.260000,10.092000,4.809000,29.61
0.165542,0.501000,-0.253000,-0.839000,9.160000,9.557000,4.427000,29.57
0.165956,0.498000,-0.259000,-0.833000,7.053000,9.023000,3.496000,29.57
0.166366,0.504000,-0.263000,-0.832000,4.916000,8.443000,2.550000,29.52
0.166782,0.498000,-0.261000,-0.833000,2.656000,7.603000,1.374000,29.52
0.167204,0.490000,-0.258000,-0.831000,0.626000,6.672000,0.290000,29.57
0.167625,0.494000,-0.244000,-0.829000,-0.870000,5.908000,-0.550000,29.57
0.168054,0.482000,-0.246000,-0.833000,-1.817000,5.282000,-1.298000,29.52
0.168490,0.492000,-0.239000,-0.834000,-2.534000,5.817000,-1.817000,29.52
0.168907,0.490000,-0.225000,-0.835000,-2.550000,5.389000,-1.710000,29.57
0.169327,0.480000,-0.228000,-0.835000,-2.733000,5.160000,-1.954000,29.57
0.169866,0.491000,-0.242000,-0.824000,-3.237000,4.550000,-2.321000,29.52
0.170474,0.495000,-0.235000,-0.832000,-3.954000,3.817000,-3.008000,29.52
0.170982,0.487000,-0.224000,-0.832000,-4.321000,3.542000,-3.160000,29.57
0.171436,0.483000,-0.226000,-0.832000,-4.183000,2.931000,-3.298000,29.57
0.171868,0.487000,-0.223000,-0.827000,-4.443000,2.336000,-3.664000,29.47
0.172300,0.497000,-0.213000,-0.836000,-5.069000,2.031000,-3.847000,29.52
0.172738,0.487000,-0.220000,-0.838000,-5.206000,1.664000,-4.260000,29.47
0.173172,0.486000,-0.229000,-0.837000,-5.893000,1.115000,-4.687000,29.47
0.173597,0.492000,-0.216000,-0.838000,-5.969000,1.511000,-4.885000,29.57
0.174017,0.491000,-0.218000,-0.844000,-5.145000,1.771000,-4.427000,29.52
0.174436,0.494000,-0.213000,-0.833000,-4.427000,1.756000,-3.863000,29.61
0.174848,0.491000,-0.207000,-0.839000,-4.076000,1.939000,-3.374000,29.47
0.175267,0.489000,-0.228000,-0.843000,-4.351000,1.954000,-3.099000,29.47
0.175675,0.485000,-0.224000,-0.833000,-4.443000,2.702000,-3.160000,29.61
0.176121,0.488000,-0.221000,-0.841000,-4.336000,3.389000,-2.870000,29.66
0.176548,0.495000,-0.229000,-0.839000,-4.305000,2.992000,-2.702000,29.47
0.176966,0.502000,-0.217000,-0.840000,-4.168000,3.053000,-2.779000,29.57
0.177385,0.493000,-0.225000,-0.845000,-4.229000,3.267000,-2.275000,29.52
0.177811,0.497000,-0.215000,-0.836000,-4.672000,2.931000,-2.260000,29.42
0.178231,0.501000,-0.220000,-0.835000,-5.145000,2.641000,-2.305000,29.57
0.178647,0.497000,-0.226000,-0.835000,-5.344000,2.550000,-2.260000,29.47
0.179062,0.494000,-0.231000,-0.841000,-5.374000,2.214000,-2.275000,29.61
0.179580,0.493000,-0.217000,-0.843000,-5.679000,2.687000,-2.351000,29.61
0.180139,0.495000,-0.236000,-0.840000,-6.260000,2.733000,-2.412000,29.57
0.180593,0.491000,-0.244000,-0.841000,-7.679000,3.359000,-3.023000,29.47
0.181040,0.492000,-0.256000,-0.834000,-10.076000,3.389000,-4.382000,29.52
0.181521,0.495000,-0.254000,-0.831000,-12.809000,3.267000,-6.107000,29.52
0.181942,0.504000,-0.221000,-0.838000,-13.405000,2.244000,-6.809000,29.61
0.182359,0.502000,-0.214000,-0.841000,-12.794000,1.359000,-6.794000,29.57
0.182785,0.491000,-0.242000,-0.841000,-13.237000,0.916000,-7.084000,29.57
0.183206,0.501000,-0.234000,-0.843000,-14.443000,1.267000,-8.000000,29.52
0.183627,0.494000,-0.230000,-0.842000,-15.603000,1.527000,-8.885000,29.61
0.184044,0.499000,-0.203000,-0.845000,-15.924000,1.588000,-9.282000,29.57
0.184463,0.489000,-0.202000,-0.846000,-16.611000,2.107000,-9.863000,29.47
0.184892,0.484000,-0.194000,-0.854000,-15.832000,2.534000,-10.198000,29.52
0.185317,0.470000,-0.202000,-0.846000,-15.954000,4.092000,-10.412000,29.57
0.185750,0.479000,-0.190000,-0.859000,-15.573000,5.466000,-11.130000,29.57
0.186186,0.472000,-0.184000,-0.847000,-14.336000,7.664000,-11.634000,29.57
0.186610,0.491000,-0.185000,-0.848000,-13.099000,10.000000,-11.527000,29.61
0.187036,0.492000,-0.164000,-0.858000,-11.099000,11.649000,-10.473000,29.52
0.187456,0.508000,-0.166000,-0.872000,-9.954000,13.252000,-9.740000,29.47
0.187885,0.519000,-0.176000,-0.882000,-8.107000,16.214000,-9.588000,29.57
0.188374,0.524000,-0.248000,-0.884000,-9.420000,22.550000,-10.351000,29.61
0.188796,0.502000,-0.259000,-0.862000,-6.718000,28.076000,-8.550000,29.52
0.189234,0.513000,-0.200000,-0.863000,-2.107000,34.153000,-7.313000,29.57
0.189677,0.478000,-0.264000,-0.864000,-0.962000,36.046000,-9.542000,29.57
0.190114,0.520000,-0.277000,-0.881000,-5.176000,37.573000,-13.511000,29.61
0.190529,0.557000,-0.409000,-0.779000,3.145000,47.267000,-17.893000,29.52
0.190976,0.436000,-0.141000,-0.823000,11.817000,50.687000,-25.511000,29.57
0.191533,0.476000,0.060000,-0.925000,19.740000,60.519000,-31.496000,29.57
0.192163,0.495000,0.013000,-0.918000,38.458000,70.550000,-37.847000,29.47
0.192619,0.496000,-0.032000,-0.950000,60.489000,72.962000,-44.947000,29.52
0.193040,0.503000,-0.100000,-0.952000,80.840000,73.038000,-53.893000,29.52
0.193464,0.513000,-0.162000,-0.982000,99.878000,65.924000,-65.786000,29.47
0.193895,0.488000,-0.283000,-0.970000,110.015000,58.336000,-80.595000,29.57
0.194322,0.593000,-0.310000,-1.015000,111.908000,48.611000,-97.053000,29.52
0.194756,0.521000,-0.367000,-0.915000,107.802000,34.580000,-111.221000,29.57
0.195192,0.486000,-0.538000,-0.905000,102.595000,19.725000,-124.962000,29.57
0.195613,0.463000,-0.580000,-0.974000,91.573000,5.328000,-136.550000,29.47
0.196057,0.195000,-0.675000,-1.067000,85.802000,-13.969000,-136.534000,29.52
0.196484,0.478000,-0.944000,-1.164000,76.626000,-30.443000,-131.344000,29.61
0.196910,0.284000,-0.991000,-1.129000,61.496000,-48.901000,-115.023000,29.47
0.197353,0.053000,-0.822000,-0.859000,57.908000,-60.718000,-102.275000,29.57
0.197778,0.005000,-0.759000,-0.839000,63.344000,-69.450000,-88.580000,29.61
0.198208,0.002000,-0.755000,-0.835000,72.214000,-75.130000,-71.679000,29.52
0.198646,-0.004000,-0.741000,-0.845000,79.908000,-77.771000,-53.527000,29.57
0.199078,-0.031000,-0.652000,-0.808000,87.420000,-77.374000,-36.015000,29.57
0.199510,-0.027000,-0.529000,-0.822000,95.344000,-77.160000,-22.092000,29.61
0.199941,0.021000,-0.480000,-0.816000,98.427000,-77.954000,-10.824000,29.52
0.200372,0.087000,-0.439000,-0.834000,97.130000,-77.725000,-2.275000,29.52
0.200810,0.178000,-0.365000,-0.863000,96.015000,-78.962000,5.725000,29.47
0.201338,0.253000,-0.324000,-0.845000,94.702000,-75.435000,15.466000,29.57
0.201936,0.318000,-0.213000,-0.796000,94.260000,-67.130000,27.710000,29.52
0.202471,0.403000,-0.057000,-0.767000,97.115000,-57.771000,39.771000,29.42
0.203016,0.430000,0.047000,-0.703000,95.176000,-42.824000,47.817000,29.66
0.203475,0.420000,0.197000,-0.608000,92.153000,-21.252000,49.939000,29.66
0.203931,1.626000,-0.782000,-0.511000,-74.672000,-48.809000,-60.962000,29.42
0.204394,0.964000,2.327000,-0.519000,-157.145000,-36.168000,-109.954000,29.57
0.204857,1.890000,2.470000,-0.360000,-142.595000,-18.076000,-172.702000,29.57
0.205310,2.287000,4.000000,-0.336000,-41.344000,81.695000,-204.366000,29.57
0.205889,2.682000,-1.136000,-0.550000,-55.466000,-84.901000,-107.344000,29.52
0.206399,1.664000,-0.865000,-0.695000,-11.634000,-24.489000,10.153000,29.52
0.206837,-0.127000,0.552000,-1.033000,18.611000,-69.679000,8.351000,29.57
0.207273,0.262000,0.352000,-1.452000,16.443000,-39.282000,3.206000,29.57
0.207701,0.136000,-1.183000,-0.752000,8.260000,-13.282000,-4.763000,29.61
0.208147,0.214000,-1.087000,-0.425000,-51.802000,26.992000,-35.420000,29.52
0.208574,0.856000,0.000000,-1.169000,-43.389000,13.573000,-37.069000,29.47
0.209000,0.536000,0.351000,-0.851000,-23.786000,7.313000,-24.733000,29.57
0.209431,0.502000,-0.048000,-0.895000,-2.748000,-5.282000,-12.504000,29.52
0.209852,0.530000,-0.349000,-0.837000,-2.290000,3.084000,-13.756000,29.61
0.210282,0.529000,-0.335000,-0.832000,-8.550000,9.954000,-18.351000,29.57
0.210708,0.519000,-0.184000,-0.853000,-9.084000,10.000000,-19.802000,29.47
0.211240,0.546000,-0.102000,-0.867000,-4.504000,2.198000,-16.885000,29.42
0.211672,0.511000,-0.149000,-0.859000,-1.023000,-2.275000,-13.985000,29.57
0.212108,0.498000,-0.198000,-0.852000,-0.885000,-2.092000,-12.901000,29.57
0.212539,0.526000,-0.207000,-0.856000,-2.870000,1.954000,-12.336000,29.57
0.213000,0.523000,-0.146000,-0.854000,-3.023000,4.458000,-11.084000,29.52
0.213424,0.529000,-0.143000,-0.846000,-1.649000,3.832000,-9.160000,29.52
0.213838,0.544000,-0.183000,-0.860000,-1.115000,0.137000,-8.046000,29.47
0.214266,0.533000,-0.178000,-0.847000,-1.817000,-0.947000,-7.557000,29.47
0.214716,0.531000,-0.154000,-0.870000,-2.916000,-0.489000,-6.244000,29.52
0.215159,0.517000,-0.148000,-0.861000,-2.977000,-0.489000,-4.916000,29.52
0.215658,0.492000,-0.164000,-0.859000,-2.458000,-0.580000,-4.031000,29.47
0.216293,0.484000,-0.176000,-0.854000,-1.710000,0.733000,-3.847000,29.57
0.216779,0.497000,-0.178000,-0.855000,-1.985000,1.847000,-3.878000,29.61
0.217218,0.515000,-0.160000,-0.855000,-2.809000,3.771000,-3.542000,29.52
0.217649,0.513000,-0.156000,-0.855000,-2.412000,4.794000,-2.336000,29.57
0.218088,0.516000,-0.151000,-0.849000,-1.863000,5.038000,-1.786000,29.57
0.218516,0.505000,-0.165000,-0.865000,-1.420000,5.344000,-0.962000,29.57
0.218941,0.509000,-0.171000,-0.856000,-1.313000,5.557000,-0.992000,29.61
0.219364,0.508000,-0.175000,-0.854000,-1.679000,5.359000,-0.718000,29.52
0.219792,0.510000,-0.184000,-0.841000,-1.924000,4.977000,-1.008000,29.47
0.220257,0.508000,-0.183000,-0.838000,-2.672000,4.000000,-1.710000,29.66
0.220728,0.499000,-0.167000,-0.845000,-3.496000,3.496000,-1.802000,29.52
0.221210,0.511000,-0.174000,-0.843000,-4.122000,3.420000,-2.122000,29.57
0.221649,0.504000,-0.166000,-0.844000,-4.305000,3.405000,-2.305000,29.57
0.222076,0.508000,-0.155000,-0.840000,-4.000000,3.053000,-2.153000,29.57
0.222495,0.498000,-0.159000,-0.842000,-3.634000,2.672000,-1.740000,29.52
0.222980,0.501000,-0.146000,-0.842000,-2.840000,2.885000,-1.359000,29.61
0.223413,0.500000,-0.147000,-0.854000,-2.382000,2.809000,-0.855000,29.47
0.223827,0.504000,-0.153000,-0.849000,-1.420000,2.718000,-0.198000,29.57
0.224248,0.506000,-0.156000,-0.844000,-0.977000,2.397000,0.137000,29.61
0.224661,0.499000,-0.153000,-0.845000,-0.061000,1.924000,0.397000,29.61
0.225077,0.499000,-0.156000,-0.853000,0.611000,1.695000,0.779000,29.57
0.225486,0.496000,-0.155000,-0.845000,0.687000,1.420000,0.947000,29.38
0.226058,0.506000,-0.168000,-0.850000,0.870000,1.267000,1.145000,29.52
0.226576,0.506000,-0.157000,-0.854000,0.687000,0.763000,1.420000,29.61
0.227022,0.509000,-0.158000,-0.848000,0.565000,0.550000,1.939000,29.66
0.227471,0.502000,-0.166000,-0.847000,0.733000,0.092000,2.061000,29.57
0.227903,0.502000,-0.179000,-0.839000,0.641000,-0.031000,1.908000,29.52
0.228320,0.497000,-0.169000,-0.852000,0.137000,0.473000,1.679000,29.52
0.228733,0.495000,-0.179000,-0.859000,-0.198000,1.313000,1.557000,29.57
0.229144,0.497000,-0.189000,-0.857000,-0.977000,1.573000,1.221000,29.57
0.229556,0.501000,-0.185000,-0.861000,-2.244000,2.061000,0.885000,29.52
0.229964,0.496000,-0.185000,-0.850000,-3.435000,1.573000,0.244000,29.52
0.230388,0.500000,-0.196000,-0.849000,-4.718000,1.267000,-0.107000,29.66
0.230897,0.505000,-0.204000,-0.857000,-6.076000,0.885000,-1.008000,29.57
0.231349,0.517000,-0.193000,-0.854000,-7.511000,0.443000,-1.588000,29.47
0.231765,0.509000,-0.197000,-0.854000,-8.824000,0.076000,-2.244000,29.52
0.232188,0.508000,-0.193000,-0.846000,-10.656000,-0.885000,-3.069000,29.61
0.232605,0.515000,-0.169000,-0.854000,-11.695000,-1.939000,-2.977000,29.47
0.233038,0.520000,-0.151000,-0.852000,-12.489000,-2.992000,-2.458000,29.57
0.233460,0.512000,-0.160000,-0.863000,-13.420000,-4.061000,-1.679000,29.52
0.233878,0.513000,-0.164000,-0.856000,-14.168000,-4.656000,-1.084000,29.52
0.234302,0.500000,-0.165000,-0.861000,-14.977000,-5.115000,-0.733000,29.66
0.234741,0.490000,-0.174000,-0.865000,-15.725000,-5.023000,-0.794000,29.47
0.235170,0.484000,-0.179000,-0.863000,-16.580000,-3.634000,-1.527000,29.52
0.235639,0.491000,-0.195000,-0.862000,-17.344000,-0.534000,-2.046000,29.61
0.236299,0.497000,-0.214000,-0.859000,-17.985000,1.786000,-2.687000,29.57
0.236735,0.509000,-0.190000,-0.869000,-17.298000,2.504000,-2.672000,29.47
0.237155,0.483000,-0.174000,-0.846000,-15.939000,3.756000,-1.847000,29.52
0.237577,0.482000,-0.229000,-0.827000,-13.176000,3.649000,-1.969000,29.57
0.238245,0.479000,-0.254000,-0.859000,-15.160000,5.786000,-3.924000,29.57
0.238753,0.484000,-0.229000,-0.861000,-15.176000,10.611000,-5.160000,29.57
0.239235,0.455000,-0.220000,-0.875000,-13.878000,12.702000,-9.756000,29.52
0.239716,0.452000,-0.298000,-0.859000,-20.656000,15.237000,-14.718000,29.52
0.240140,0.438000,-0.242000,-0.899000,-22.260000,20.183000,-19.282000,29.57
0.240569,0.615000,-0.237000,-0.894000,-27.695000,17.725000,-24.443000,29.57
0.241011,0.555000,0.121000,-0.870000,-25.267000,20.198000,-35.511000,29.61
0.241441,0.794000,-0.101000,-0.919000,-34.504000,10.702000,-37.389000,29.52
0.241870,0.634000,-0.063000,-0.850000,-18.153000,10.443000,-49.084000,29.47
0.242295,0.585000,-0.014000,-0.820000,-2.534000,3.634000,-63.847000,29.57
0.242714,0.629000,-0.270000,-1.007000,6.565000,-0.321000,-67.969000,29.52
0.243138,0.562000,-0.745000,-0.826000,7.481000,-0.992000,-50.412000,29.52
0.243563,0.564000,-1.081000,-0.639000,18.809000,11.420000,-15.832000,29.66
0.243993,0.511000,-1.294000,-0.446000,26.992000,28.122000,30.687000,29.57
0.244417,0.716000,-1.171000,-0.500000,45.313000,43.206000,75.389000,29.52
0.244851,0.569000,-0.952000,-0.682000,43.588000,45.145000,103.344000,29.52
0.245282,0.448000,-0.647000,-0.679000,40.290000,44.321000,117.771000,29.47
0.245705,0.363000,-0.318000,-0.765000,40.366000,44.702000,117.832000,29.47
0.246147,0.331000,-0.132000,-0.878000,41.740000,40.305000,111.710000,29.61
0.246575,0.345000,-0.062000,-1.011000,42.656000,31.695000,102.885000,29.52
0.247006,0.335000,-0.012000,-1.039000,41.511000,19.069000,94.580000,29.47
0.247423,0.269000,0.041000,-0.971000,39.878000,9.725000,85.115000,29.57
0.247857,0.230000,0.083000,-0.905000,39.313000,3.084000,72.885000,29.47
0.248274,0.210000,0.111000,-0.859000,40.137000,-4.809000,57.588000,29.52
0.248696,0.191000,0.115000,-0.814000,39.405000,-12.229000,38.687000,29.42
0.249323,0.150000,0.112000,-0.743000,38.962000,-20.168000,17.389000,29.57
0.249823,0.218000,-0.031000,-0.782000,34.702000,-22.244000,-5.191000,29.66
0.250272,0.495000,0.187000,-0.809000,-58.244000,-49.664000,-83.954000,29.52
0.250722,1.439000,1.515000,-0.871000,-107.344000,-41.969000,-134.031000,29.61
0.251219,1.235000,2.586000,-0.393000,-59.893000,-66.550000,-152.519000,29.47
0.251725,0.993000,0.696000,-0.515000,-47.252000,-57.313000,-69.893000,29.57
0.252184,0.990000,-0.579000,-1.695000,-24.626000,22.870000,-2.336000,29.52
0.252626,0.210000,-0.474000,-0.622000,14.824000,-44.809000,3.313000,29.61
0.253075,0.357000,-0.382000,-1.117000,-9.405000,4.947000,-12.855000,29.57
0.253531,0.461000,-0.380000,-0.830000,-5.008000,-10.351000,-11.313000,29.57
0.253977,0.503000,-0.333000,-0.907000,-9.939000,7.542000,-12.397000,29.52
0.254428,0.549000,-0.111000,-0.900000,-5.267000,4.611000,-8.641000,29.57
0.254875,0.491000,-0.124000,-0.909000,-2.336000,9.053000,-5.527000,29.47
0.255331,0.477000,-0.155000,-0.886000,0.214000,10.824000,-4.534000,29.66
0.255821,0.552000,-0.349000,-0.795000,-3.359000,15.847000,-7.023000,29.52
0.256352,0.613000,-0.356000,-0.784000,-8.656000,17.771000,-9.863000,29.61
0.256896,0.550000,-0.208000,-0.847000,-10.626000,14.321000,-11.099000,29.57
0.257363,0.528000,-0.179000,-0.844000,-10.794000,5.511000,-10.366000,29.57
0.257812,0.530000,-0.124000,-0.860000,-10.885000,-0.153000,-8.962000,29.52
0.258269,0.527000,-0.098000,-0.860000,-8.290000,-2.809000,-6.595000,29.52
0.258717,0.507000,-0.116000,-0.859000,-6.260000,-1.435000,-4.626000,29.47
0.259192,0.499000,-0.149000,-0.850000,-4.336000,0.183000,-3.786000,29.47
0.259665,0.488000,-0.130000,-0.852000,-2.305000,1.252000,-3.359000,29.52
0.260108,0.494000,-0.135000,-0.858000,-0.397000,2.718000,-2.290000,29.52
0.260551,0.496000,-0.131000,-0.858000,1.527000,3.893000,-1.221000,29.61
0.261045,0.489000,-0.135000,-0.840000,3.069000,4.870000,-0.092000,29.57
0.261477,0.481000,-0.148000,-0.862000,3.573000,5.832000,0.626000,29.57
0.261887,0.501000,-0.160000,-0.849000,3.802000,6.260000,0.916000,29.61
0.262305,0.490000,-0.199000,-0.850000,2.550000,5.756000,0.031000,29.61
0.262726,0.489000,-0.211000,-0.842000,-0.260000,6.366000,-1.740000,29.38
0.263182,0.497000,-0.218000,-0.846000,-2.641000,7.176000,-3.588000,29.47
0.263603,0.512000,-0.201000,-0.846000,-4.443000,7.359000,-4.565000,29.42
0.264034,0.495000,-0.197000,-0.839000,-5.649000,6.794000,-6.000000,29.47
0.264549,0.503000,-0.202000,-0.836000,-7.298000,6.107000,-7.221000,29.57
0.265116,0.500000,-0.180000,-0.834000,-8.046000,6.153000,-8.290000,29.66
0.265565,0.494000,-0.170000,-0.844000,-8.260000,6.092000,-9.038000,29.61
0.266032,0.496000,-0.155000,-0.838000,-8.366000,6.840000,-8.992000,29.52
0.266466,0.497000,-0.142000,-0.852000,-7.649000,6.427000,-8.534000,29.47
0.266892,0.505000,-0.138000,-0.854000,-7.023000,6.351000,-8.260000,29.57
0.267316,0.509000,-0.134000,-0.861000,-5.786000,6.748000,-7.740000,29.52
0.267730,0.518000,-0.132000,-0.860000,-5.084000,7.221000,-6.672000,29.52
0.268155,0.520000,-0.121000,-0.843000,-3.847000,7.282000,-5.527000,29.47
0.268571,0.524000,-0.135000,-0.841000,-3.206000,6.718000,-4.382000,29.57
0.268990,0.529000,-0.133000,-0.840000,-2.336000,5.328000,-3.542000,29.52
0.269406,0.520000,-0.135000,-0.846000,-2.015000,4.687000,-2.748000,29.61
0.269823,0.523000,-0.141000,-0.842000,-1.664000,4.153000,-2.305000,29.57
0.270244,0.514000,-0.144000,-0.844000,-1.176000,3.557000,-1.908000,29.57
0.270660,0.510000,-0.151000,-0.841000,-1.191000,3.282000,-1.924000,29.57
0.271083,0.515000,-0.150000,-0.845000,-1.298000,3.847000,-1.954000,29.52
0.271502,0.521000,-0.149000,-0.847000,-1.328000,4.183000,-1.481000,29.61
0.271917,0.508000,-0.142000,-0.846000,-1.359000,4.702000,-1.496000,29.47
0.272341,0.500000,-0.154000,-0.849000,-1.557000,5.145000,-1.359000,29.47
0.272756,0.511000,-0.155000,-0.844000,-1.634000,5.679000,-1.542000,29.52
0.273175,0.503000,-0.149000,-0.853000,-1.710000,6.198000,-1.664000,29.57
0.273588,0.521000,-0.148000,-0.838000,-2.153000,6.229000,-1.313000,29.47
0.274007,0.511000,-0.145000,-0.836000,-1.954000,6.397000,-1.389000,29.57
0.274495,0.513000,-0.146000,-0.849000,-1.969000,6.519000,-1.420000,29.61
0.275069,0.514000,-0.146000,-0.839000,-1.924000,6.412000,-1.099000,29.52
0.275524,0.513000,-0.148000,-0.844000,-2.046000,6.870000,-1.344000,29.57
0.276021,0.519000,-0.154000,-0.843000,-2.061000,6.931000,-1.634000,29.47
0.276478,0.514000,-0.156000,-0.831000,-2.076000,7.130000,-1.649000,29.61
0.276927,0.516000,-0.153000,-0.846000,-1.863000,7.221000,-1.969000,29.52
0.277364,0.523000,-0.156000,-0.836000,-1.496000,7.206000,-2.412000,29.57
0.277803,0.524000,-0.155000,-0.839000,-1.802000,7.191000,-2.809000,29.57
0.278244,0.523000,-0.149000,-0.825000,-1.954000,6.275000,-2.885000,29.57
0.278679,0.522000,-0.146000,-0.838000,-2.382000,5.160000,-2.901000,29.52
0.279115,0.520000,-0.145000,-0.837000,-2.534000,4.656000,-2.443000,29.61
0.279554,0.516000,-0.143000,-0.839000,-2.489000,3.740000,-2.000000,29.47
0.279985,0.525000,-0.145000,-0.836000,-2.824000,3.221000,-1.664000,29.57
0.280427,0.523000,-0.143000,-0.833000,-2.443000,3.160000,-1.313000,29.52
0.280887,0.516000,-0.147000,-0.844000,-2.489000,2.916000,-1.435000,29.61
0.281341,0.522000,-0.143000,-0.839000,-2.489000,2.977000,-1.557000,29.47
0.281767,0.524000,-0.143000,-0.845000,-2.290000,2.763000,-1.450000,29.57
0.282180,0.519000,-0.143000,-0.841000,-2.198000,2.809000,-1.344000,29.52
0.282609,0.531000,-0.137000,-0.833000,-1.969000,2.763000,-1.160000,29.57
0.283026,0.519000,-0.138000,-0.842000,-1.817000,2.427000,-0.870000,29.57
0.283444,0.515000,-0.143000,-0.836000,-1.557000,2.565000,-0.824000,29.57
0.283863,0.523000,-0.146000,-0.846000,-2.031000,2.412000,-0.840000,29.52
0.284287,0.520000,-0.141000,-0.844000,-2.137000,2.397000,-0.916000,29.61
0.284790,0.516000,-0.135000,-0.838000,-1.939000,2.718000,-0.779000,29.47
0.285324,0.515000,-0.138000,-0.836000,-1.603000,2.779000,-0.580000,29.57
0.285760,0.509000,-0.138000,-0.843000,-1.328000,2.977000,-0.565000,29.42
0.286250,0.522000,-0.156000,-0.838000,-1.466000,3.023000,-0.794000,29.52
0.286745,0.513000,-0.153000,-0.838000,-1.725000,3.496000,-1.252000,29.57
0.287194,0.520000,-0.154000,-0.844000,-2.275000,3.664000,-1.481000,29.57
0.287635,0.525000,-0.146000,-0.838000,-2.611000,3.695000,-1.496000,29.52
0.288073,0.519000,-0.145000,-0.844000,-2.779000,3.695000,-1.740000,29.52
0.288561,0.523000,-0.145000,-0.832000,-2.748000,3.389000,-1.649000,29.57
0.289045,0.523000,-0.147000,-0.836000,-2.519000,3.481000,-1.573000,29.57
0.289547,0.525000,-0.145000,-0.843000,-2.595000,3.084000,-1.466000,29.52
0.289983,0.520000,-0.139000,-0.850000,-2.260000,3.099000,-1.115000,29.52
0.290407,0.521000,-0.145000,-0.835000,-2.076000,2.977000,-1.084000,29.47
0.290841,0.521000,-0.143000,-0.837000,-2.031000,3.237000,-0.916000,29.57
0.291261,0.523000,-0.139000,-0.838000,-1.908000,3.389000,-0.733000,29.57
0.291684,0.518000,-0.146000,-0.841000,-1.679000,3.588000,-0.702000,29.42
0.292109,0.521000,-0.146000,-0.843000,-1.924000,3.679000,-1.191000,29.57
0.292530,0.522000,-0.152000,-0.831000,-2.198000,3.649000,-1.069000,29.57
0.292948,0.515000,-0.144000,-0.837000,-2.137000,3.634000,-1.298000,29.47
0.293366,0.521000,-0.161000,-0.839000,-2.565000,3.679000,-1.832000,29.52
0.293786,0.519000,-0.163000,-0.833000,-3.267000,3.908000,-2.458000,29.52
0.294209,0.518000,-0.137000,-0.843000,-3.511000,4.153000,-2.855000,29.57
0.294705,0.522000,-0.150000,-0.837000,-3.710000,4.443000,-2.718000,29.47
0.295274,0.528000,-0.161000,-0.831000,-4.046000,4.275000,-3.450000,29.42
0.295724,0.521000,-0.146000,-0.841000,-4.244000,4.183000,-3.511000,29.61
0.296215,0.523000,-0.139000,-0.850000,-4.519000,4.366000,-3.527000,29.47
0.296682,0.527000,-0.133000,-0.840000,-4.305000,4.137000,-3.420000,29.57
0.297130,0.518000,-0.148000,-0.841000,-4.214000,4.076000,-3.374000,29.52
0.297599,0.523000,-0.140000,-0.840000,-4.412000,4.290000,-3.466000,29.42
0.298050,0.526000,-0.146000,-0.838000,-4.656000,4.000000,-3.511000,29.47
0.298462,0.524000,-0.132000,-0.846000,-4.489000,3.710000,-3.405000,29.57
0.298876,0.520000,-0.133000,-0.846000,-3.969000,3.344000,-3.649000,29.52
0.299288,0.525000,-0.121000,-0.844000,-3.527000,3.115000,-3.420000,29.52
0.299702,0.534000,-0.139000,-0.844000,-4.092000,3.206000,-3.099000,29.52
0.300121,0.534000,-0.123000,-0.844000,-3.511000,2.779000,-2.565000,29.57
0.300545,0.525000,-0.128000,-0.835000,-2.916000,2.427000,-2.000000,29.66
0.300970,0.527000,-0.130000,-0.836000,-2.748000,2.275000,-1.649000,29.52
0.301386,0.519000,-0.129000,-0.840000,-2.702000,2.244000,-1.206000,29.57
0.301803,0.534000,-0.121000,-0.843000,-1.969000,2.031000,-0.733000,29.47
0.302217,0.526000,-0.120000,-0.840000,-1.313000,1.878000,-0.275000,29.47
0.302633,0.533000,-0.130000,-0.837000,-0.962000,1.481000,0.122000,29.52
0.303059,0.529000,-0.135000,-0.839000,-1.069000,1.298000,0.076000,29.52
0.303466,0.526000,-0.133000,-0.832000,-0.779000,0.794000,0.275000,29.47
0.303877,0.520000,-0.128000,-0.843000,-0.702000,0.611000,0.443000,29.57
0.304285,0.537000,-0.129000,-0.847000,0.473000,0.153000,0.504000,29.61
0.304818,0.533000,-0.147000,-0.823000,1.511000,2.962000,0.687000,29.52
0.305415,0.556000,-0.111000,-0.851000,5.023000,3.832000,1.985000,29.57
0.305864,0.590000,-0.097000,-0.861000,10.198000,2.305000,4.183000,29.57
0.306310,0.594000,-0.096000,-0.863000,13.176000,-2.794000,6.672000,29.42
0.306738,0.558000,-0.094000,-0.854000,13.466000,-9.603000,9.466000,29.52
0.307161,0.427000,-0.140000,-0.789000,14.366000,-12.397000,8.779000,29.57
0.307578,0.409000,-0.258000,-0.827000,9.786000,-8.763000,3.374000,29.57
0.307999,0.499000,-0.222000,-0.812000,4.901000,-5.679000,-0.229000,29.52
0.308423,0.493000,-0.190000,-0.850000,1.588000,-2.015000,-1.420000,29.52
0.308843,0.490000,-0.177000,-0.871000,-1.069000,-1.847000,-2.473000,29.42
0.309263,0.509000,-0.163000,-0.847000,-2.504000,-0.046000,-2.534000,29.57
0.309680,0.532000,-0.148000,-0.872000,-2.763000,1.893000,-2.198000,29.57
0.310122,0.537000,-0.104000,-0.850000,-0.137000,2.015000,-0.229000,29.61
0.310533,0.553000,-0.072000,-0.854000,6.092000,1.481000,3.130000,29.57
0.310953,0.538000,-0.064000,-0.852000,13.023000,-1.878000,6.977000,29.66
0.311378,0.540000,-0.108000,-0.859000,19.450000,-1.756000,10.168000,29.66
0.311804,0.604000,-0.077000,-0.877000,32.183000,-0.947000,16.229000,29.61
0.312233,0.651000,-0.041000,-0.907000,46.809000,-1.160000,25.191000,29.61
0.312650,0.621000,-0.052000,-0.896000,55.511000,-5.084000,33.267000,29.47
0.313116,0.534000,-0.169000,-0.880000,57.878000,-10.321000,36.122000,29.57
0.313541,0.574000,-0.260000,-0.882000,58.855000,-9.389000,37.603000,29.61
0.313973,0.547000,-0.211000,-0.914000,58.824000,-11.374000,36.870000,29.61
0.314388,0.480000,-0.274000,-0.877000,56.687000,-8.672000,35.786000,29.57
0.314935,0.485000,-0.324000,-0.873000,54.366000,-9.038000,33.099000,29.57
0.315552,0.402000,-0.352000,-0.781000,48.107000,-11.527000,28.809000,29.52
0.316063,0.393000,-0.488000,-0.712000,32.321000,-8.885000,19.221000,29.52
0.316586,0.397000,-0.507000,-0.694000,14.183000,-6.214000,10.687000,29.57
0.317016,0.344000,-0.531000,-0.692000,-9.160000,-3.634000,0.611000,29.57
0.324814,0.246000,-0.530000,-0.671000,-29.985000,1.679000,-10.092000,29.61
0.334799,0.181000,-0.488000,-0.698000,-49.939000,9.664000,-22.580000,29.52
0.344836,0.104000,-0.557000,-0.732000,-67.710000,17.557000,-35.359000,29.47
0.354836,0.072000,-0.593000,-0.760000,-79.924000,41.191000,-49.206000,29.47
0.364826,0.221000,-0.703000,-0.920000,-83.420000,72.702000,-61.191000,29.52
0.374882,0.704000,-0.453000,-1.282000,-88.611000,95.221000,-83.893000,29.52
0.384888,0.696000,-0.204000,-1.412000,-25.176000,113.863000,-121.634000,29.57
0.394869,0.569000,-0.632000,-1.377000,-24.534000,105.099000,-137.206000,29.57
0.404889,0.332000,-1.680000,-1.594000,-39.160000,99.954000,-111.939000,29.47
0.414953,-0.315000,-1.900000,-1.387000,-69.725000,93.298000,-72.931000,29.52
0.424869,0.059000,-1.456000,-1.340000,-50.763000,99.847000,-18.137000,29.61
0.434923,-0.400000,-1.244000,-1.340000,-21.359000,70.229000,14.809000,29.57
0.444875,-0.488000,-1.164000,-1.204000,-5.252000,49.710000,35.084000,29.57
0.454876,-0.515000,-0.855000,-1.226000,-2.718000,34.427000,38.168000,29.52
0.464913,-0.458000,-0.640000,-1.333000,7.466000,21.435000,37.603000,29.52
0.474930,-0.403000,-0.522000,-1.344000,19.176000,5.618000,35.450000,29.57
0.484858,-0.335000,-0.487000,-1.296000,27.130000,-12.076000,34.061000,29.57
0.494907,-0.228000,-0.428000,-1.253000,32.519000,-29.038000,33.908000,29.52
0.504980,-0.101000,-0.353000,-1.246000,34.840000,-44.641000,35.084000,29.52
0.515072,-0.006000,-0.311000,-1.208000,34.427000,-56.092000,36.870000,29.47
0.524990,0.094000,-0.276000,-1.148000,31.695000,-66.168000,40.305000,29.57
0.534989,0.178000,-0.239000,-1.085000,30.031000,-73.420000,44.015000,29.52
0.544941,0.262000,-0.209000,-1.059000,27.145000,-80.321000,47.008000,29.61
0.555015,0.329000,-0.186000,-1.015000,24.534000,-84.931000,48.427000,29.57
0.565047,0.354000,-0.167000,-0.950000,21.069000,-83.160000,48.122000,29.66
0.575116,0.391000,-0.153000,-0.906000,19.221000,-79.634000,47.237000,29.52
0.585125,0.469000,-0.151000,-0.904000,19.664000,-75.252000,46.229000,29.52
0.595080,0.592000,-0.171000,-0.982000,20.565000,-72.061000,47.664000,29.57
0.604927,0.718000,-0.147000,-1.019000,25.130000,-73.221000,52.718000,29.47
0.614860,0.762000,-0.081000,-0.975000,32.809000,-75.954000,56.809000,29.47
0.624820,0.753000,0.014000,-0.872000,38.656000,-79.298000,56.702000,29.52
0.634886,0.721000,0.094000,-0.689000,41.969000,-74.031000,52.015000,29.61
0.644822,0.727000,0.158000,-0.576000,42.382000,-65.954000,45.008000,29.57
0.654843,0.783000,0.143000,-0.546000,43.557000,-53.939000,37.130000,29.57
0.664860,1.027000,0.094000,-0.710000,44.458000,-43.008000,35.985000,29.52
0.674839,1.272000,0.087000,-0.877000,50.153000,-45.298000,42.382000,29.52
0.684824,1.431000,0.139000,-0.907000,52.397000,-56.748000,50.870000,29.57
0.694853,1.366000,0.376000,-0.646000,50.153000,-66.718000,50.977000,29.47
0.704871,1.275000,0.497000,-0.358000,44.519000,-71.481000,40.763000,29.42
0.714968,1.370000,0.487000,-0.371000,31.664000,-69.511000,26.840000,29.61
0.724856,1.541000,0.354000,-0.543000,22.412000,-73.038000,20.229000,29.66
0.734899,1.671000,0.290000,-0.638000,12.168000,-83.191000,23.023000,29.57
0.744895,1.565000,0.224000,-0.445000,-6.763000,-89.298000,24.290000,29.61
0.754892,0.185000,-0.035000,0.251000,-3.191000,-40.672000,17.634000,29.57
0.764901,1.100000,0.975000,1.180000,-24.351000,-33.924000,-18.244000,29.57
0.774854,2.593000,0.588000,0.481000,7.786000,27.863000,-20.275000,29.57
0.784933,1.563000,-0.299000,-1.133000,41.084000,31.344000,18.214000,29.52
0.794955,0.844000,-0.573000,-1.604000,33.145000,-9.954000,42.534000,29.61
0.804983,-0.910000,-0.547000,-0.640000,4.061000,6.046000,3.221000,29.57
0.815090,-0.410000,-0.812000,-0.471000,15.954000,23.099000,-17.466000,29.47
0.825061,0.588000,-0.689000,-0.867000,10.382000,52.168000,-10.519000,29.52
0.835047,0.729000,-0.078000,-1.043000,2.947000,63.756000,-7.374000,29.52
0.845113,0.443000,0.095000,-0.895000,-0.626000,72.595000,-9.176000,29.57
0.855178,-0.006000,0.419000,-1.090000,22.595000,57.511000,-29.832000,29.47
0.865105,0.166000,0.089000,-0.946000,44.565000,76.305000,-42.962000,29.52
0.875173,0.512000,-0.406000,-0.922000,50.611000,79.145000,-40.153000,29.61
0.885080,0.812000,-0.680000,-1.126000,35.450000,77.038000,-36.489000,29.57
0.895018,0.763000,-0.571000,-0.944000,22.000000,71.725000,-30.260000,29.47
0.904961,0.593000,-0.482000,-0.946000,11.450000,65.237000,-29.588000,29.57
0.915189,0.769000,-0.707000,-0.965000,3.603000,47.053000,-24.901000,29.61
0.925171,0.605000,-0.644000,-0.786000,-10.031000,33.466000,-21.939000,29.52
0.935334,0.517000,-0.625000,-0.823000,-19.573000,26.214000,-20.519000,29.47
0.945310,0.470000,-0.479000,-0.802000,-28.061000,20.870000,-21.115000,29.66
0.955373,0.353000,-0.413000,-0.745000,-34.916000,21.145000,-23.496000,29.61
0.965178,0.233000,-0.435000,-0.694000,-41.008000,23.664000,-28.443000,29.57
0.975328,0.215000,-0.378000,-0.648000,-52.580000,32.290000,-35.069000,29.57
0.985385,0.247000,-0.373000,-0.673000,-70.718000,39.954000,-42.122000,29.47
0.995495,0.387000,-0.493000,-0.787000,-84.107000,50.122000,-47.069000,29.52
1.005213,0.619000,-0.466000,-1.000000,-87.191000,55.008000,-47.252000,29.61
1.015331,0.649000,-0.263000,-1.021000,-79.802000,47.405000,-43.221000,29.57
1.025129,0.580000,-0.373000,-0.880000,-72.382000,38.611000,-40.702000,29.66
1.035100,0.623000,-0.334000,-1.002000,-63.450000,32.763000,-38.061000,29.52
1.044872,0.527000,-0.244000,-0.860000,-55.267000,23.710000,-36.198000,29.52
1.054836,0.537000,-0.292000,-0.856000,-52.779000,19.985000,-36.656000,29.57
1.064865,0.540000,-0.233000,-0.940000,-48.733000,26.336000,-36.489000,29.47
1.074939,0.503000,-0.160000,-0.849000,-40.504000,19.450000,-34.122000,29.61
1.084845,0.508000,-0.180000,-0.876000,-35.130000,23.679000,-31.603000,29.61
1.094884,0.503000,-0.157000,-0.868000,-28.611000,26.229000,-28.397000,29.47
1.104886,0.479000,-0.199000,-0.864000,-26.550000,30.443000,-27.573000,29.57
1.114882,0.501000,-0.179000,-0.843000,-25.160000,33.725000,-28.382000,29.52
1.124864,0.491000,-0.223000,-0.861000,-23.710000,36.321000,-30.565000,29.52
1.134846,0.471000,-0.156000,-0.849000,-23.115000,45.053000,-29.481000,29.57
1.144839,0.517000,-0.200000,-0.830000,-22.229000,52.504000,-30.137000,29.57
1.154826,0.386000,0.107000,-0.910000,-10.870000,54.901000,-43.954000,29.57
1.164931,0.488000,-0.208000,-0.799000,-19.298000,74.244000,-36.779000,29.52
1.174879,0.575000,-0.415000,-0.831000,-28.260000,88.397000,-36.031000,29.57
1.184901,0.596000,-0.064000,-0.820000,-36.183000,107.893000,-32.580000,29.57
1.194879,0.578000,-0.152000,-0.859000,-36.565000,127.954000,-29.588000,29.47
1.213559,0.541000,-0.234000,-0.863000,-39.679000,144.809000,-30.748000,29.52
1.216775,0.562000,-0.166000,-0.830000,-43.679000,169.756000,-35.206000,29.52
1.228743,0.526000,-0.082000,-0.792000,-39.664000,189.466000,-42.702000,29.47
1.235751,0.523000,-0.046000,-0.848000,-38.809000,196.931000,-48.046000,29.57
1.244805,0.620000,-0.181000,-0.731000,-60.229000,205.405000,-41.649000,29.52
1.254852,0.556000,-0.046000,-0.856000,-22.183000,220.718000,-57.359000,29.52
1.264867,0.718000,-0.107000,-0.722000,-37.053000,218.901000,-68.565000,29.57
1.274866,0.489000,-0.051000,-0.965000,-42.137000,308.656000,-68.229000,29.57
1.284841,0.798000,-0.281000,-0.869000,-64.611000,275.527000,-93.664000,29.52
1.294860,0.876000,-0.309000,-0.795000,-84.351000,298.779000,-113.679000,29.52
1.304873,1.141000,-0.378000,-0.980000,-81.481000,316.687000,-126.718000,29.57
1.314895,1.246000,-0.465000,-1.106000,-62.107000,369.298000,-133.069000,29.57
1.324928,1.901000,-0.430000,-1.328000,7.023000,391.908000,-123.191000,29.52
1.334903,2.253000,-0.325000,-1.801000,67.069000,412.076000,-102.092000,29.57
1.344948,2.196000,-0.167000,-1.741000,90.672000,407.084000,-104.824000,29.57
1.354972,2.403000,-0.408000,-2.151000,62.321000,376.351000,-126.641000,29.57
1.365082,1.872000,-0.702000,-2.207000,4.672000,335.328000,-140.275000,29.61
1.375102,1.048000,-1.082000,-2.474000,-32.229000,301.282000,-131.634000,29.52
1.384976,-0.537000,-4.000000,-2.527000,-33.389000,152.046000,34.580000,29.47
1.395075,2.228000,-3.876000,-3.514000,-95.466000,128.672000,216.000000,29.66
1.405091,0.290000,-2.375000,-2.741000,-206.092000,-38.305000,240.779000,29.52
1.415059,-1.415000,-0.494000,-1.815000,-174.443000,-44.183000,249.389000,29.52
1.425145,-0.454000,0.704000,-2.525000,-105.908000,-89.649000,178.962000,29.57
1.435235,-0.420000,0.556000,-2.424000,-48.244000,-140.443000,92.611000,29.47
1.445203,-0.062000,0.124000,-2.325000,-68.931000,-333.588000,-12.229000,29.57
1.455281,0.250000,-0.139000,-2.658000,-37.466000,-264.275000,-114.901000,29.52
1.464927,0.434000,0.017000,-2.296000,-72.656000,-287.221000,-170.366000,29.42
1.474998,0.616000,-0.022000,-1.913000,-22.748000,-361.481000,-195.466000,29.57
1.484941,0.843000,-0.399000,-1.578000,19.221000,-412.458000,-191.542000,29.57
1.494796,1.056000,-0.627000,-1.063000,50.260000,-450.061000,-177.954000,29.52
1.504836,1.009000,-0.842000,-0.623000,62.779000,-448.504000,-154.183000,29.52
1.514941,0.906000,-0.969000,-0.404000,69.359000,-423.206000,-121.786000,29.47
1.524835,1.000000,-0.979000,-0.301000,78.015000,-384.763000,-79.908000,29.57
1.534756,0.924000,-1.010000,-0.292000,92.427000,-336.977000,-32.061000,29.42
1.544901,1.028000,-0.951000,-0.469000,114.931000,-298.840000,15.557000,29.57
1.554840,1.180000,-0.934000,-0.748000,131.969000,-274.504000,59.969000,29.47
1.564938,1.310000,-0.923000,-0.970000,133.221000,-259.115000,94.779000,29.57
1.574844,1.451000,-0.784000,-1.121000,126.626000,-249.634000,121.740000,29.52
1.584809,1.568000,-0.510000,-1.117000,125.130000,-236.916000,148.229000,29.52
1.594869,1.575000,-0.220000,-1.158000,130.534000,-226.122000,170.443000,29.57
1.604882,1.652000,-0.088000,-1.187000,130.840000,-213.496000,188.275000,29.47
1.614895,1.864000,0.131000,-1.267000,132.641000,-207.954000,198.824000,29.52
1.624898,1.948000,0.299000,-1.318000,125.908000,-189.725000,205.405000,29.52
1.634897,2.053000,0.536000,-1.172000,129.130000,-204.443000,198.427000,29.47
1.644907,1.808000,1.230000,-1.332000,121.115000,-188.626000,178.763000,29.47
1.654920,2.229000,0.951000,-1.102000,123.878000,-193.863000,142.916000,29.52
1.664987,2.505000,1.160000,-0.917000,143.237000,-216.855000,106.397000,29.52
1.674878,2.715000,1.035000,-0.834000,151.588000,-227.527000,81.618000,29.52
1.684959,2.522000,1.095000,-0.534000,157.863000,-197.740000,66.183000,29.47
1.694955,3.074000,1.437000,0.001000,163.496000,-187.176000,58.901000,29.47
1.705018,2.707000,1.371000,0.130000,133.221000,-141.252000,81.771000,29.52
1.715217,3.031000,0.975000,0.657000,134.763000,-150.840000,94.473000,29.61
1.725063,2.898000,1.162000,0.708000,108.565000,-71.130000,109.603000,29.57
1.735043,2.650000,1.335000,0.744000,80.794000,-9.221000,105.145000,29.47
1.745128,2.628000,1.365000,0.801000,49.832000,25.344000,88.687000,29.52
1.755111,2.311000,1.291000,0.635000,14.641000,44.870000,81.282000,29.47
1.765128,2.919000,1.656000,1.708000,-97.832000,112.733000,12.366000,29.57
1.775115,-0.378000,1.344000,-0.009000,-74.779000,170.962000,-12.366000,29.66
1.785122,1.242000,0.062000,-3.125000,-62.412000,87.664000,-41.924000,29.52
1.795205,-0.398000,-0.596000,-1.942000,-54.687000,51.542000,-62.870000,29.52
1.805349,-1.589000,-0.102000,0.021000,-35.756000,134.489000,-117.160000,29.47
1.815262,0.358000,-0.372000,-0.392000,-10.397000,225.557000,-117.130000,29.57
1.825190,2.281000,0.097000,-2.537000,16.458000,201.908000,-84.611000,29.52
1.834908,1.490000,0.965000,-2.171000,24.275000,169.908000,-78.229000,29.42
1.844974,0.887000,0.705000,-1.902000,37.008000,150.870000,-90.550000,29.57
1.854936,1.179000,-0.435000,-1.665000,39.603000,109.389000,-73.954000,29.57
1.865047,0.985000,-0.986000,-0.715000,27.695000,103.435000,-45.832000,29.42
1.874960,0.944000,-0.974000,-0.861000,3.267000,95.282000,-34.931000,29.52
1.884946,0.811000,-0.571000,-0.887000,-9.985000,59.771000,-31.481000,29.57
1.894969,0.852000,-0.624000,-0.934000,-23.618000,45.634000,-26.763000,29.47
1.904979,0.740000,-0.692000,-0.778000,-35.145000,37.481000,-22.824000,29.52
1.914990,0.553000,-0.597000,-0.792000,-46.641000,26.901000,-23.908000,29.57
1.925033,0.326000,-0.453000,-0.677000,-63.328000,24.229000,-30.046000,29.57
1.935029,0.235000,-0.465000,-0.630000,-83.023000,21.695000,-37.939000,29.47
1.945091,0.251000,-0.359000,-0.680000,-102.718000,26.931000,-47.099000,29.52
1.955059,0.446000,-0.444000,-0.970000,-110.687000,35.267000,-52.702000,29.52
1.965063,0.584000,-0.220000,-1.051000,-99.847000,46.794000,-47.771000,29.47
1.975026,0.618000,-0.193000,-1.028000,-80.061000,37.450000,-40.092000,29.57
1.985116,0.556000,-0.258000,-0.911000,-64.809000,33.893000,-35.328000,29.52
1.995142,0.582000,-0.214000,-0.947000,-50.412000,26.458000,-32.870000,29.52
2.005106,0.543000,-0.367000,-0.819000,-46.611000,28.473000,-33.176000,29.52
2.014999,0.533000,-0.294000,-0.854000,-45.786000,22.076000,-35.115000,29.57
2.024942,0.535000,-0.247000,-0.864000,-41.695000,17.389000,-35.115000,29.47
2.034898,0.516000,-0.171000,-0.842000,-39.710000,11.099000,-34.931000,29.52
2.044893,0.514000,-0.168000,-0.830000,-35.176000,6.076000,-34.656000,29.61
2.054965,0.491000,-0.208000,-0.845000,-35.634000,8.290000,-35.466000,29.57
2.065025,0.495000,-0.178000,-0.856000,-36.321000,12.489000,-35.771000,29.47
2.074972,0.513000,-0.169000,-0.841000,-33.573000,15.298000,-33.802000,29.52
2.084951,0.528000,-0.118000,-0.881000,-29.084000,18.626000,-31.435000,29.42
2.095010,0.447000,-0.165000,-0.835000,-24.351000,21.618000,-27.038000,29.47
2.105128,0.533000,-0.092000,-0.853000,-20.718000,27.298000,-25.023000,29.57
2.115175,0.536000,-0.147000,-0.844000,-18.412000,32.611000,-23.985000,29.61
2.125012,0.538000,-0.124000,-0.825000,-16.000000,34.702000,-24.916000,29.57
2.135089,0.433000,-0.562000,-0.717000,-6.565000,34.519000,-28.336000,29.47
2.145183,0.516000,-0.107000,-0.879000,-16.565000,44.824000,-29.679000,29.47
2.155179,0.576000,-0.200000,-0.840000,-18.809000,54.473000,-27.313000,29.52
2.165161,0.495000,-0.169000,-0.869000,-20.809000,64.672000,-27.878000,29.52
2.175224,0.535000,-0.189000,-0.897000,-22.718000,79.969000,-27.374000,29.47
2.185292,0.564000,-0.195000,-0.885000,-25.542000,95.878000,-28.519000,29.47
2.195127,0.547000,-0.231000,-0.857000,-33.282000,121.160000,-27.252000,29.52
2.205134,0.535000,-0.162000,-0.864000,-37.740000,151.695000,-33.115000,29.42
2.215320,0.499000,-0.091000,-0.890000,-38.794000,180.382000,-36.916000,29.47
2.225194,0.493000,-0.010000,-0.850000,-41.023000,211.313000,-47.618000,29.47
2.235233,0.496000,-0.002000,-0.865000,-37.542000,219.099000,-51.908000,29.52
2.245388,0.503000,-0.009000,-0.904000,-37.496000,241.267000,-54.916000,29.42
2.255134,0.593000,-0.063000,-0.968000,-35.847000,269.603000,-70.733000,29.66
2.265059,0.486000,-0.207000,-0.771000,-42.809000,299.634000,-89.237000,29.47
2.275291,0.635000,-0.224000,-0.925000,-40.687000,309.237000,-110.641000,29.52
2.285200,0.839000,-0.326000,-0.963000,-30.412000,341.954000,-126.916000,29.52
2.295339,1.378000,-0.523000,-1.218000,6.611000,336.489000,-138.855000,29.47
2.305298,1.503000,-0.444000,-1.475000,9.618000,391.756000,-135.634000,29.57
2.315203,2.145000,-0.308000,-1.885000,23.710000,411.634000,-133.405000,29.47
2.325300,2.550000,-0.367000,-2.227000,24.580000,428.275000,-144.870000,29.52
2.335290,2.551000,-0.505000,-2.185000,16.626000,385.206000,-182.550000,29.47
2.345345,2.158000,-0.705000,-2.780000,-12.275000,327.466000,-185.908000,29.57
2.355232,-0.546000,-1.911000,-3.217000,28.443000,200.702000,-127.618000,29.47
2.365219,0.380000,-3.990000,-3.978000,37.527000,118.794000,6.275000,29.52
2.375111,0.679000,-3.424000,-3.669000,-66.260000,-135.618000,42.275000,29.52
2.385408,-1.257000,-2.505000,-1.652000,-141.863000,-164.565000,63.084000,29.57
2.395263,-0.728000,-1.292000,-1.874000,-151.985000,-196.244000,64.153000,29.47
2.405451,-0.521000,-0.785000,-2.143000,-108.550000,-198.321000,71.374000,29.61
2.415005,-0.432000,-0.689000,-1.941000,-52.855000,-208.489000,68.336000,29.52
2.424983,-0.232000,-0.802000,-1.784000,-18.015000,-242.809000,54.672000,29.57
2.435125,-0.003000,-0.693000,-1.542000,-8.076000,-278.183000,35.115000,29.66
2.445270,0.164000,-0.436000,-1.302000,6.794000,-302.809000,16.443000,29.52
2.455235,0.354000,-0.197000,-1.100000,34.244000,-296.611000,5.466000,29.61
2.465257,0.542000,-0.170000,-1.063000,62.489000,-290.656000,0.595000,29.57
2.475269,0.752000,-0.344000,-1.025000,97.099000,-308.565000,3.481000,29.57
2.485238,0.848000,-0.447000,-1.067000,116.000000,-314.794000,11.405000,29.52
2.495393,0.959000,-0.438000,-1.087000,125.252000,-308.382000,20.473000,29.42
2.505498,1.094000,-0.385000,-1.100000,129.435000,-294.901000,30.595000,29.47
2.515345,1.484000,-0.381000,-1.260000,145.802000,-280.092000,48.519000,29.57
2.525544,1.133000,-0.386000,-1.058000,146.885000,-286.794000,57.985000,29.61
2.537091,1.027000,-0.284000,-0.974000,150.611000,-270.565000,65.191000,29.52
2.547314,1.582000,-0.220000,-1.172000,160.855000,-255.847000,89.740000,29.57
2.565264,1.380000,-0.224000,-1.168000,160.443000,-235.313000,111.405000,29.47
2.566350,1.505000,-0.184000,-1.232000,159.145000,-216.992000,131.893000,29.57
2.580485,1.641000,-0.021000,-1.299000,151.618000,-211.298000,147.298000,29.42
2.584804,1.711000,0.162000,-1.278000,143.466000,-202.412000,157.435000,29.52
2.594876,1.814000,0.375000,-1.260000,140.733000,-201.710000,157.603000,29.57
2.604829,1.977000,0.632000,-1.248000,136.885000,-183.374000,150.595000,29.47
2.614945,2.138000,0.802000,-1.192000,142.687000,-186.794000,139.771000,29.42
2.624875,2.306000,0.373000,-0.548000,127.099000,-118.137000,145.023000,29.52
2.634879,2.398000,1.000000,-0.850000,137.679000,-191.374000,115.573000,29.57
2.644906,2.518000,1.164000,-0.658000,126.885000,-173.130000,105.115000,29.57
2.654891,2.620000,1.092000,-0.285000,110.794000,-156.824000,99.221000,29.61
2.664889,2.672000,1.065000,-0.001000,83.511000,-148.229000,91.282000,29.52
2.674895,2.634000,1.092000,0.430000,64.061000,-118.656000,86.626000,29.57
2.684850,2.541000,1.214000,0.699000,56.672000,-75.160000,77.771000,29.57
2.694919,2.488000,1.288000,0.659000,45.221000,-39.908000,76.580000,29.52
2.704878,2.496000,1.190000,0.703000,46.550000,-9.481000,70.107000,29.52
2.714990,2.456000,0.994000,0.608000,9.405000,25.282000,65.756000,29.47
2.724955,2.330000,0.800000,0.472000,-46.656000,62.840000,63.023000,29.57
2.734971,0.349000,0.075000,1.055000,-61.160000,112.397000,50.107000,29.52
2.745031,0.821000,0.804000,0.612000,-92.672000,84.443000,-10.672000,29.61
2.755073,0.779000,-0.154000,-2.134000,-97.405000,130.519000,-42.137000,29.57
2.765187,0.146000,-0.642000,-2.599000,-111.252000,25.176000,-60.794000,29.57
2.775090,-0.235000,-0.528000,-0.920000,-86.458000,61.756000,-65.252000,29.57
2.785070,-0.757000,-0.076000,0.092000,-82.000000,95.328000,-87.573000,29.52
2.795141,0.735000,0.145000,-0.876000,-29.389000,131.084000,-67.313000,29.52
2.805077,1.422000,0.525000,-2.086000,-10.947000,137.802000,-62.626000,29.47
2.815070,0.789000,0.816000,-1.872000,2.534000,121.618000,-78.305000,29.47
2.825242,0.856000,0.655000,-1.992000,25.420000,110.748000,-86.763000,29.61
2.835270,0.796000,-0.078000,-1.353000,39.328000,129.252000,-65.252000,29.52
2.845310,0.908000,-0.613000,-1.204000,32.382000,92.092000,-51.542000,29.66
2.855357,0.760000,-0.483000,-0.901000,32.397000,89.084000,-37.939000,29.57
2.865402,0.908000,-0.661000,-0.986000,14.779000,82.183000,-31.511000,29.61
2.875288,0.911000,-0.683000,-0.846000,2.656000,66.061000,-22.885000,29.52
2.885151,0.774000,-0.683000,-0.829000,-9.985000,44.565000,-17.908000,29.61
2.895310,0.546000,-0.537000,-0.790000,-23.115000,29.374000,-19.008000,29.47
2.905263,0.421000,-0.497000,-0.780000,-36.672000,14.519000,-23.847000,29.57
2.915161,0.299000,-0.500000,-0.651000,-59.908000,13.069000,-32.855000,29.52
2.925178,0.229000,-0.415000,-0.643000,-88.809000,18.687000,-44.000000,29.52
2.935151,0.396000,-0.455000,-0.886000,-108.550000,27.908000,-51.115000,29.47
2.945176,0.625000,-0.382000,-1.132000,-97.084000,32.885000,-47.313000,29.47
2.955248,0.610000,-0.157000,-1.042000,-76.336000,31.588000,-38.565000,29.52
2.965274,0.540000,-0.225000,-0.955000,-58.763000,30.321000,-31.725000,29.57
2.975182,0.529000,-0.288000,-0.986000,-51.481000,32.733000,-29.847000,29.47
2.985241,0.490000,-0.231000,-0.857000,-43.710000,27.740000,-29.542000,29.57
2.995308,0.508000,-0.369000,-0.824000,-43.496000,33.863000,-30.916000,29.42
3.005362,0.529000,-0.273000,-0.814000,-45.832000,22.015000,-34.336000,29.52
3.015268,0.465000,-0.322000,-0.829000,-48.626000,19.679000,-36.916000,29.47
3.025288,0.513000,-0.296000,-0.851000,-46.870000,14.061000,-39.053000,29.57
3.035290,0.494000,-0.176000,-0.855000,-41.145000,7.878000,-38.519000,29.52
3.045302,0.495000,-0.178000,-0.840000,-38.107000,9.084000,-37.282000,29.61
3.055387,0.496000,-0.123000,-0.851000,-33.847000,13.481000,-34.183000,29.47
3.065286,0.505000,-0.124000,-0.876000,-30.153000,19.221000,-31.542000,29.57
3.075401,0.504000,-0.108000,-0.876000,-24.748000,22.611000,-29.237000,29.52
3.085257,0.490000,-0.105000,-0.875000,-23.191000,30.000000,-25.817000,29.52
3.095318,0.515000,-0.114000,-0.848000,-19.557000,35.160000,-24.015000,29.57
3.105317,0.535000,-0.106000,-0.857000,-16.626000,38.641000,-23.145000,29.47
3.115354,0.423000,0.074000,-0.942000,-4.412000,37.756000,-32.916000,29.47
3.125324,0.541000,-0.297000,-0.786000,-14.519000,49.435000,-26.641000,29.52
3.135266,0.537000,-0.199000,-0.785000,-15.679000,56.611000,-23.084000,29.52
3.145464,0.492000,-0.137000,-0.854000,-17.573000,57.817000,-21.344000,29.57
3.155342,0.490000,-0.134000,-0.875000,-18.840000,73.756000,-19.618000,29.57
3.165296,0.516000,-0.151000,-0.860000,-19.603000,88.214000,-18.580000,29.61
3.175353,0.536000,-0.205000,-0.890000,-23.328000,102.992000,-17.649000,29.47
3.185230,0.566000,-0.199000,-0.846000,-28.779000,127.160000,-17.954000,29.57
3.195380,0.563000,-0.196000,-0.822000,-29.527000,142.153000,-20.275000,29.57
3.205478,0.530000,-0.086000,-0.858000,-29.038000,170.122000,-23.542000,29.52
3.215267,0.487000,-0.042000,-0.841000,-32.763000,188.275000,-29.405000,29.52
3.225472,0.380000,0.063000,-0.602000,-12.611000,233.374000,-37.969000,29.47
3.235337,0.608000,0.019000,-0.873000,-29.832000,227.481000,-37.359000,29.57
3.245351,0.566000,-0.010000,-0.791000,-30.427000,239.924000,-40.351000,29.52
3.255473,0.609000,-0.104000,-0.882000,-27.328000,245.176000,-50.779000,29.52
3.265371,0.574000,-0.238000,-0.903000,-45.298000,252.611000,-69.389000,29.57
3.275554,0.617000,-0.265000,-0.838000,-73.771000,341.573000,-82.626000,29.57
3.285401,0.946000,-0.312000,-0.844000,-69.053000,327.863000,-103.817000,29.52
3.295531,1.216000,-0.418000,-1.096000,-68.763000,355.344000,-129.328000,29.42
3.305404,1.592000,-0.552000,-1.408000,-52.137000,397.206000,-140.122000,29.57
3.315148,2.255000,-0.596000,-2.053000,11.603000,387.725000,-130.824000,29.57
3.325387,2.134000,-0.288000,-1.842000,43.084000,381.954000,-146.489000,29.52
3.335321,2.341000,-0.584000,-2.179000,-21.115000,360.733000,-192.061000,29.52
3.345326,2.196000,-0.768000,-2.171000,-79.939000,343.481000,-210.733000,29.47
3.355268,1.151000,-1.168000,-2.561000,-108.046000,295.618000,-200.519000,29.57
3.365240,-1.004000,-1.739000,-2.906000,-71.008000,128.107000,-88.626000,29.52
3.375274,2.128000,-3.024000,-4.000000,-9.023000,117.267000,37.618000,29.61
3.385240,0.602000,-2.411000,-3.258000,-104.275000,-169.328000,31.954000,29.47
3.395328,-1.187000,-1.577000,-1.516000,-131.771000,-173.481000,29.725000,29.57
3.405301,-0.562000,-0.671000,-1.957000,-112.962000,-202.244000,22.382000,29.38
3.415479,-0.345000,-0.404000,-1.918000,-57.038000,-201.542000,17.878000,29.42
3.425305,-0.399000,-0.496000,-1.739000,-7.924000,-205.374000,5.771000,29.42
3.435249,-0.130000,-0.618000,-1.671000,12.885000,-240.550000,-13.725000,29.57
3.445275,0.043000,-0.553000,-1.412000,21.939000,-273.908000,-34.794000,29.57
3.455110,0.196000,-0.413000,-1.234000,42.168000,-294.046000,-46.168000,29.52
3.465251,0.380000,-0.281000,-1.027000,73.115000,-302.382000,-47.695000,29.42
3.475162,0.524000,-0.354000,-0.808000,98.260000,-301.176000,-40.916000,29.57
3.485192,0.588000,-0.472000,-0.677000,117.405000,-295.786000,-27.527000,29.47
3.495247,0.695000,-0.549000,-0.689000,128.611000,-287.618000,-8.794000,29.42
3.505144,0.835000,-0.592000,-0.809000,137.160000,-277.679000,13.939000,29.42
3.515279,1.004000,-0.546000,-0.954000,147.588000,-268.107000,39.359000,29.47
3.525261,1.091000,-0.486000,-1.058000,155.710000,-261.817000,64.504000,29.57
3.535189,1.139000,-0.438000,-1.109000,161.542000,-261.252000,85.832000,29.52
3.545260,1.201000,-0.397000,-1.139000,157.740000,-261.740000,103.099000,29.47
3.555151,1.266000,-0.394000,-1.144000,150.885000,-260.046000,116.672000,29.47
3.565183,1.346000,-0.390000,-1.097000,146.534000,-248.855000,135.130000,29.57
3.575122,1.455000,-0.204000,-1.083000,149.695000,-229.954000,160.947000,29.52
3.592072,1.612000,-0.064000,-1.160000,155.664000,-215.802000,185.389000,29.52
3.596486,1.760000,0.036000,-1.262000,154.321000,-199.893000,206.672000,29.47
3.608596,2.091000,0.149000,-1.403000,141.176000,-190.779000,220.779000,29.57
3.614816,2.320000,0.338000,-1.443000,117.176000,-189.649000,221.450000,29.47
3.625488,2.445000,0.641000,-1.306000,90.611000,-203.099000,205.603000,29.52
3.634804,2.605000,0.937000,-1.108000,98.351000,-219.359000,185.359000,29.52
3.644812,2.751000,1.026000,-0.904000,112.382000,-224.137000,165.649000,29.57
3.654828,2.907000,1.152000,-0.595000,123.496000,-216.733000,152.595000,29.57
3.664889,3.051000,1.074000,-0.235000,144.229000,-213.405000,144.702000,29.52
3.674814,3.044000,1.020000,0.304000,128.260000,-156.382000,143.878000,29.52
3.684829,2.962000,1.336000,0.581000,122.947000,-126.244000,134.427000,29.57
3.694823,2.862000,1.510000,0.638000,113.206000,-88.321000,120.168000,29.47
3.704930,2.892000,1.846000,0.859000,128.870000,-46.611000,89.008000,29.52
3.714930,2.855000,1.669000,0.970000,101.649000,-2.015000,53.267000,29.61
3.724929,3.234000,0.828000,1.301000,-24.214000,60.504000,20.672000,29.47
3.735071,2.525000,1.025000,1.688000,-169.847000,72.870000,-40.412000,29.47
3.744937,-0.052000,1.489000,0.246000,-186.305000,71.145000,-57.802000,29.42
3.755023,1.950000,0.236000,-2.726000,-120.061000,133.023000,-39.863000,29.47
3.765080,-0.252000,-0.473000,-2.552000,-69.725000,51.206000,-45.176000,29.57
3.775078,-0.647000,-0.143000,-0.829000,-44.641000,69.817000,-82.122000,29.57
3.785025,-0.273000,0.351000,-0.205000,-25.863000,143.878000,-109.191000,29.52
3.795071,1.311000,0.302000,-1.225000,7.221000,189.863000,-97.847000,29.52
3.805108,1.610000,0.385000,-2.112000,34.183000,161.771000,-83.695000,29.47
3.815156,1.005000,0.320000,-1.557000,44.031000,147.740000,-89.740000,29.47
3.825215,1.435000,-0.819000,-1.499000,12.382000,103.863000,-94.092000,29.42
3.835120,1.387000,-1.265000,-0.878000,-10.504000,93.649000,-62.855000,29.52
3.845193,0.939000,-0.662000,-0.931000,-26.061000,97.725000,-47.069000,29.47
3.855037,0.733000,-0.026000,-1.267000,-33.008000,73.298000,-44.687000,29.47
3.865106,0.875000,-0.368000,-1.000000,-37.695000,38.122000,-36.427000,29.47
3.875025,0.697000,-0.695000,-0.747000,-45.802000,28.718000,-25.145000,29.52
3.885137,0.630000,-0.384000,-0.939000,-57.023000,17.160000,-24.260000,29.52
3.895165,0.581000,-0.312000,-0.976000,-55.084000,2.870000,-22.580000,29.47
3.905312,0.506000,-0.433000,-0.823000,-55.466000,6.015000,-21.344000,29.47
3.915039,0.416000,-0.343000,-0.889000,-57.313000,12.901000,-23.099000,29.52
3.925165,0.413000,-0.266000,-0.932000,-57.008000,15.237000,-25.267000,29.52
3.935132,0.493000,-0.257000,-0.903000,-52.534000,17.893000,-24.519000,29.47
3.945154,0.512000,-0.245000,-0.908000,-45.588000,19.573000,-23.466000,29.47
3.954918,0.515000,-0.259000,-0.896000,-39.908000,19.542000,-22.061000,29.42
3.966267,0.535000,-0.260000,-0.919000,-33.878000,17.939000,-19.756000,29.57
3.974910,0.481000,-0.245000,-0.833000,-27.817000,13.359000,-18.611000,29.57
3.985003,0.435000,-0.297000,-0.809000,-30.916000,12.458000,-21.282000,29.47
3.994951,0.446000,-0.296000,-0.804000,-35.252000,11.084000,-25.282000,29.52
4.004966,0.505000,-0.253000,-0.842000,-36.580000,9.588000,-27.008000,29.42
4.014958,0.504000,-0.232000,-0.842000,-35.191000,9.511000,-27.328000,29.47
4.024961,0.456000,-0.179000,-0.826000,-31.557000,7.969000,-27.206000,29.47
4.035007,0.510000,-0.206000,-0.895000,-29.496000,10.229000,-28.183000,29.52
4.045056,0.490000,-0.203000,-0.844000,-29.038000,11.023000,-28.947000,29.52
4.055068,0.483000,-0.159000,-0.853000,-28.076000,12.198000,-28.473000,29.47
4.065250,0.518000,-0.171000,-0.872000,-27.695000,13.267000,-27.603000,29.47
4.075114,0.506000,-0.164000,-0.859000,-26.931000,13.130000,-27.160000,29.52
4.085098,0.517000,-0.120000,-0.878000,-24.809000,15.863000,-25.695000,29.52
4.095126,0.509000,-0.111000,-0.861000,-21.511000,17.954000,-23.145000,29.52
4.105258,0.460000,-0.137000,-0.836000,-19.802000,24.244000,-19.603000,29.57
4.115176,0.500000,-0.114000,-0.840000,-16.046000,26.992000,-18.351000,29.57
4.125300,0.496000,-0.175000,-0.832000,-15.771000,30.031000,-19.939000,29.61
4.135249,0.510000,-0.149000,-0.842000,-13.924000,34.580000,-21.008000,29.52
4.145311,0.418000,0.157000,-0.940000,-2.519000,36.885000,-30.443000,29.47
4.155241,0.487000,-0.139000,-0.842000,-11.832000,47.878000,-23.969000,29.47
4.165267,0.531000,-0.148000,-0.830000,-12.611000,57.252000,-21.847000,29.52
4.175152,0.473000,-0.217000,-0.876000,-18.000000,70.046000,-22.198000,29.57
4.185242,0.487000,-0.212000,-0.888000,-26.061000,91.176000,-21.573000,29.57
4.195268,0.533000,-0.209000,-0.904000,-27.786000,107.053000,-23.191000,29.57
4.205335,0.558000,-0.197000,-0.877000,-33.252000,129.679000,-23.221000,29.61
4.215172,0.542000,-0.147000,-0.859000,-36.702000,149.069000,-23.786000,29.52
4.225266,0.527000,-0.068000,-0.836000,-39.328000,178.763000,-25.786000,29.47
4.235242,0.415000,0.021000,-0.827000,-32.977000,206.046000,-34.763000,29.47
4.245362,0.462000,-0.146000,-0.906000,-51.603000,228.321000,-33.679000,29.61
4.255223,0.578000,-0.011000,-0.939000,-28.290000,241.130000,-43.863000,29.42
4.265362,0.487000,-0.122000,-0.859000,-32.092000,281.740000,-50.916000,29.57
4.275271,0.504000,-0.162000,-0.857000,-42.947000,283.313000,-73.237000,29.57
4.285261,0.579000,-0.281000,-0.854000,-58.229000,266.168000,-107.771000,29.42
4.295299,0.765000,-0.365000,-0.878000,-85.160000,350.779000,-139.939000,29.52
4.305211,1.138000,-0.313000,-1.086000,-91.893000,388.885000,-175.511000,29.47
4.315252,1.455000,-0.744000,-1.518000,-75.023000,426.321000,-181.756000,29.57
4.325233,2.341000,-0.714000,-1.876000,-32.687000,419.557000,-172.992000,29.57
4.335196,2.825000,-0.471000,-2.304000,7.985000,398.260000,-176.687000,29.52
4.344927,2.431000,-0.762000,-2.512000,-30.534000,387.420000,-217.496000,29.52
4.354879,2.487000,-1.239000,-2.692000,-81.237000,296.214000,-227.954000,29.66
4.364968,0.931000,-1.333000,-3.430000,-99.160000,278.779000,-217.237000,29.57
4.374810,-1.123000,-1.985000,-3.471000,-14.290000,118.702000,-101.420000,29.52
4.384792,2.264000,-2.573000,-4.000000,-0.855000,-71.328000,-31.084000,29.57
4.394797,-0.675000,-2.413000,-1.825000,-76.183000,-204.321000,-28.565000,29.47
4.404810,-0.719000,-1.741000,-1.333000,-112.443000,-213.191000,-18.519000,29.57
4.414842,-0.310000,-1.173000,-1.747000,-105.389000,-231.450000,1.099000,29.61
4.424858,-0.366000,-0.968000,-1.496000,-54.947000,-213.893000,33.481000,29.52
4.434809,-0.353000,-1.013000,-1.247000,-7.435000,-204.443000,55.282000,29.57
4.444882,-0.171000,-1.013000,-1.042000,15.863000,-218.519000,66.962000,29.47
4.454907,-0.065000,-0.845000,-0.864000,23.695000,-229.893000,70.382000,29.61
4.464913,0.074000,-0.580000,-0.863000,35.573000,-225.267000,71.160000,29.52
4.474932,0.321000,-0.358000,-0.955000,61.267000,-216.275000,74.382000,29.57
4.485003,0.519000,-0.254000,-1.038000,89.252000,-213.908000,76.763000,29.57
4.494981,0.701000,-0.270000,-1.142000,106.779000,-222.870000,77.145000,29.52
4.505020,0.757000,-0.239000,-1.122000,120.244000,-244.580000,74.595000,29.52
4.515085,0.807000,-0.204000,-1.105000,125.878000,-255.725000,71.023000,29.47
4.525056,0.893000,-0.132000,-1.144000,132.260000,-258.489000,70.626000,29.47
4.535049,0.995000,-0.091000,-1.210000,144.244000,-261.450000,76.183000,29.61
4.545018,1.093000,-0.070000,-1.278000,158.260000,-263.099000,84.427000,29.52
4.555041,1.198000,-0.058000,-1.317000,169.618000,-264.000000,92.855000,29.52
4.565063,1.323000,-0.129000,-1.363000,170.550000,-265.191000,100.550000,29.47
4.575048,1.425000,-0.194000,-1.371000,161.359000,-263.695000,108.229000,29.57
4.585107,1.653000,-0.172000,-1.325000,154.183000,-262.046000,117.924000,29.61
4.595208,1.618000,0.010000,-1.315000,150.260000,-250.718000,130.153000,29.57
4.605288,1.289000,0.169000,-2.195000,147.237000,-191.252000,157.756000,29.57
4.615196,1.932000,0.135000,-1.180000,132.183000,-204.885000,158.687000,29.47
4.625271,2.167000,0.246000,-1.044000,146.580000,-215.389000,166.015000,29.42
4.635203,2.392000,0.594000,-1.024000,137.588000,-204.107000,169.969000,29.52
4.645245,2.539000,0.715000,-0.877000,106.656000,-136.427000,188.473000,29.57
4.655113,2.612000,1.718000,-1.967000,88.061000,-301.679000,170.748000,29.47
4.665357,2.980000,1.390000,-0.490000,78.092000,-143.420000,163.740000,29.52
4.675119,3.188000,1.375000,-1.761000,104.992000,-178.153000,151.649000,29.52
4.685135,3.054000,0.928000,-2.762000,134.595000,-80.550000,118.260000,29.57
4.695233,3.111000,1.323000,0.601000,116.122000,-316.534000,117.679000,29.47
4.704990,2.452000,1.424000,1.411000,52.794000,-32.840000,118.137000,29.47
4.714929,2.816000,1.680000,1.055000,148.137000,-47.939000,82.885000,29.52
4.724910,2.706000,1.498000,1.037000,91.740000,-12.443000,64.962000,29.52
4.734932,2.688000,1.235000,0.924000,37.847000,21.725000,39.115000,29.57
4.744943,3.206000,1.054000,1.321000,-128.977000,71.817000,-26.931000,29.57
4.754995,-0.481000,1.510000,0.721000,-179.313000,90.366000,-72.473000,29.52
4.764985,2.116000,0.404000,-2.574000,-107.145000,122.931000,-43.496000,29.61
4.775017,-0.169000,-0.385000,-2.203000,-94.870000,74.382000,-36.244000,29.57
4.785108,-0.794000,-0.065000,-0.524000,-91.817000,79.481000,-83.710000,29.47
4.795102,-0.310000,0.523000,-0.355000,-31.420000,175.969000,-132.977000,29.52
4.805089,1.817000,0.683000,-1.971000,14.183000,192.947000,-129.420000,29.57
4.815191,2.035000,0.763000,-2.458000,25.282000,145.603000,-120.336000,29.57
4.825146,1.616000,-0.255000,-2.067000,-14.076000,79.588000,-126.183000,29.47
4.835274,1.524000,-1.082000,-1.286000,-28.809000,72.947000,-74.718000,29.52
4.845257,0.891000,-0.583000,-1.007000,-30.275000,82.076000,-45.557000,29.52
4.855137,0.606000,0.091000,-1.299000,-25.634000,60.168000,-39.115000,29.57
4.865145,0.793000,-0.473000,-0.900000,-25.985000,45.160000,-34.351000,29.47
4.875269,0.847000,-0.900000,-0.779000,-36.305000,38.840000,-24.779000,29.42
4.885258,0.664000,-0.444000,-0.981000,-43.405000,33.008000,-22.718000,29.52
4.895239,0.557000,-0.300000,-0.951000,-42.809000,24.168000,-22.718000,29.47
4.905172,0.454000,-0.445000,-0.755000,-39.511000,31.313000,-20.580000,29.47
4.915163,0.343000,-0.510000,-0.807000,-47.618000,26.779000,-26.397000,29.52
4.925151,0.370000,-0.314000,-0.821000,-53.618000,40.321000,-29.603000,29.61
4.935223,0.395000,-0.157000,-0.879000,-61.206000,42.275000,-29.863000,29.47
4.945132,0.491000,-0.180000,-0.908000,-58.595000,38.962000,-27.542000,29.47
4.955186,0.554000,-0.183000,-0.958000,-54.137000,36.427000,-24.733000,29.61
4.965153,0.435000,-0.228000,-0.828000,-49.466000,30.992000,-23.878000,29.52
4.975037,0.438000,-0.326000,-0.790000,-50.351000,35.435000,-27.573000,29.52
4.985063,0.571000,-0.356000,-0.870000,-45.634000,47.588000,-28.565000,29.57
4.994836,0.434000,-0.078000,-0.958000,-46.275000,43.817000,-37.511000,29.57
5.004802,0.562000,-0.239000,-0.761000,-26.397000,-5.176000,-32.565000,29.52
5.014781,0.533000,-0.201000,-0.860000,-26.977000,-6.687000,-31.817000,29.47
5.024788,0.567000,-0.166000,-0.872000,-27.817000,7.008000,-31.481000,29.57
5.035345,0.553000,-0.194000,-0.845000,-32.229000,29.847000,-31.771000,29.47
5.045414,0.573000,-0.120000,-0.910000,-28.046000,25.160000,-31.099000,29.52
5.055385,0.579000,-0.107000,-0.888000,-22.397000,19.969000,-26.992000,29.42
5.065442,0.585000,-0.129000,-0.853000,-18.870000,20.061000,-24.229000,29.57
5.075232,0.564000,-0.098000,-0.866000,-16.702000,25.573000,-22.656000,29.47
5.085336,0.560000,0.135000,-0.898000,-1.160000,33.069000,-28.977000,29.52
5.095369,0.571000,-0.108000,-0.868000,-16.183000,43.008000,-24.000000,29.52
5.105525,0.602000,-0.156000,-0.842000,-17.298000,50.977000,-22.580000,29.47
5.115462,0.537000,-0.119000,-0.822000,-17.237000,60.748000,-20.855000,29.57
5.125548,0.622000,-0.050000,-0.959000,-7.359000,44.427000,-21.511000,29.61
5.135113,0.558000,-0.084000,-0.854000,-12.000000,71.908000,-16.794000,29.42
5.145262,0.515000,-0.075000,-0.865000,-7.389000,79.389000,-11.389000,29.47
5.155243,0.552000,-0.103000,-0.867000,-7.420000,98.168000,-5.344000,29.47
5.165087,0.545000,-0.113000,-0.850000,-10.565000,124.580000,-2.840000,29.61
5.174981,0.549000,-0.210000,-0.843000,-15.939000,152.336000,-6.336000,29.52
5.185508,0.421000,-0.196000,-0.837000,-16.137000,179.405000,-17.115000,29.57
5.195036,0.380000,-0.214000,-0.817000,-8.779000,202.748000,-32.916000,29.57
5.204910,0.570000,-0.187000,-0.897000,15.527000,213.832000,-31.863000,29.52
5.214911,0.578000,-0.224000,-0.848000,41.145000,226.504000,-31.359000,29.52
5.224884,0.798000,-0.244000,-0.824000,56.809000,226.321000,-37.145000,29.47
5.234842,0.745000,-0.172000,-0.981000,84.748000,195.695000,-40.183000,29.47
5.244799,0.861000,-0.318000,-1.109000,72.198000,202.916000,-52.641000,29.57
5.257430,0.899000,-0.498000,-1.168000,39.557000,251.786000,-65.908000,29.52
5.267692,1.134000,-0.482000,-1.290000,36.275000,277.069000,-81.847000,29.42
5.279529,1.301000,-0.406000,-1.804000,47.679000,307.130000,-101.389000,29.57
5.288579,1.817000,-0.548000,-2.216000,42.214000,320.656000,-131.099000,29.57
5.297188,1.317000,-0.531000,-2.299000,79.130000,308.198000,-137.481000,29.52
5.304808,0.666000,-1.500000,-2.854000,133.405000,250.229000,-117.481000,29.42
5.315612,-0.725000,-4.000000,-3.490000,66.366000,90.718000,-29.985000,29.47
5.324825,-1.033000,-4.000000,-1.618000,-80.534000,-6.031000,36.168000,29.57
5.335196,-1.268000,-2.335000,-2.195000,-154.916000,-59.557000,58.718000,29.52
5.344851,-1.271000,-1.359000,-2.061000,-104.656000,-94.763000,77.374000,29.42
5.355688,-0.915000,-1.210000,-2.512000,-51.679000,-115.771000,87.069000,29.57
5.365524,-1.302000,-1.298000,-1.597000,-15.557000,-130.351000,78.794000,29.57
5.379028,-0.604000,-1.031000,-1.650000,-34.992000,-180.687000,47.664000,29.57
5.385750,-0.420000,-0.729000,-1.538000,-34.412000,-225.969000,24.870000,29.52
5.395472,-0.101000,-0.406000,-1.467000,-10.962000,-250.656000,6.122000,29.52
5.405721,0.079000,-0.364000,-1.274000,23.740000,-272.534000,-9.191000,29.57
5.415751,0.252000,-0.473000,-1.087000,50.870000,-270.153000,-19.664000,29.57
5.425427,0.510000,-0.549000,-1.038000,69.435000,-262.901000,-20.916000,29.52
5.435509,0.712000,-0.568000,-1.011000,82.977000,-256.504000,-11.389000,29.47
5.445485,0.853000,-0.589000,-0.970000,91.511000,-245.924000,5.160000,29.47
5.455596,0.957000,-0.589000,-0.957000,95.084000,-231.847000,25.282000,29.57
5.465517,1.302000,-0.452000,-1.033000,100.107000,-209.221000,53.115000,29.52
5.475627,1.068000,-0.559000,-1.318000,100.336000,-215.908000,73.786000,29.52
5.485553,1.193000,-0.342000,-1.066000,103.344000,-200.031000,101.603000,29.47
5.495533,1.449000,-0.239000,-1.183000,98.076000,-184.824000,115.771000,29.47
5.505566,1.445000,-0.090000,-1.179000,89.145000,-179.099000,123.649000,29.52
5.515593,1.423000,0.035000,-1.127000,76.580000,-170.595000,120.275000,29.52
5.525481,1.565000,0.225000,-1.105000,55.725000,-177.786000,106.947000,29.47
5.535413,1.484000,0.332000,-1.017000,48.702000,-183.053000,95.725000,29.47
5.545384,1.498000,0.492000,-0.955000,48.595000,-188.153000,82.748000,29.52
5.555379,1.431000,0.540000,-0.887000,51.313000,-175.145000,70.076000,29.52
5.565178,1.940000,1.118000,-0.903000,6.198000,-129.985000,27.679000,29.42
5.575224,1.512000,0.751000,-0.452000,-5.985000,-69.130000,32.794000,29.47
5.585361,1.780000,0.903000,-0.971000,26.565000,-74.321000,33.695000,29.47
5.604340,1.823000,0.631000,-0.917000,56.840000,-63.969000,41.176000,29.52
5.605373,1.941000,0.482000,-0.890000,71.511000,-67.115000,44.565000,29.52
5.614930,2.075000,0.889000,-0.409000,70.412000,-73.313000,43.511000,29.47
5.624974,1.917000,0.437000,-0.534000,55.969000,-75.298000,51.405000,29.47
5.634896,1.871000,0.646000,-0.415000,93.038000,-171.069000,27.160000,29.52
5.645127,1.521000,0.478000,0.060000,53.985000,-56.947000,47.817000,29.47
5.655090,1.514000,0.632000,0.069000,49.649000,-62.748000,49.130000,29.57
5.665123,1.451000,0.633000,0.198000,19.557000,-31.878000,37.267000,29.47
5.675099,1.601000,0.681000,0.188000,-20.947000,7.954000,18.305000,29.52
5.685175,1.729000,0.714000,0.240000,-57.115000,33.618000,-6.168000,29.52
5.695173,1.875000,0.710000,0.285000,-76.794000,41.542000,-30.351000,29.47
5.705221,2.247000,0.694000,0.461000,-90.641000,41.985000,-46.901000,29.47
5.715323,2.615000,0.836000,1.000000,-101.588000,62.534000,-54.763000,29.47
5.725297,2.379000,0.893000,1.402000,-92.168000,106.244000,-49.145000,29.52
5.735301,1.008000,0.102000,-0.600000,-47.832000,150.275000,-20.458000,29.52
5.745313,1.069000,-0.112000,-2.915000,-29.542000,235.756000,-35.908000,29.38
5.755361,0.347000,0.329000,-2.043000,-6.351000,7.481000,-44.947000,29.47
5.765203,-0.038000,0.464000,-0.536000,40.748000,45.069000,-88.412000,29.52
5.775179,0.980000,0.028000,-1.027000,12.595000,196.977000,-88.321000,29.42
5.785228,1.717000,-0.802000,-1.642000,-8.718000,70.183000,-78.153000,29.57
5.795367,0.871000,-0.440000,-0.702000,-31.237000,67.130000,-65.908000,29.47
5.805321,0.687000,-0.293000,-1.000000,-43.496000,43.954000,-63.145000,29.42
5.815241,0.768000,0.125000,-1.230000,-36.366000,20.275000,-47.221000,29.42
5.825255,0.761000,0.052000,-1.188000,-33.313000,26.183000,-34.290000,29.57
5.835303,0.802000,-0.442000,-0.964000,-31.954000,60.687000,-20.931000,29.57
5.845235,0.571000,-0.322000,-0.982000,-11.191000,-14.992000,-10.870000,29.52
5.855241,0.541000,-0.331000,-0.972000,-3.069000,-22.534000,-6.229000,29.42
5.865245,0.528000,-0.417000,-0.827000,-4.519000,-1.389000,-4.931000,29.38
5.875270,0.462000,-0.448000,-0.659000,-5.588000,28.687000,-6.015000,29.47
5.885259,0.458000,-0.257000,-0.867000,-9.725000,32.824000,-5.924000,29.42
5.895282,0.459000,-0.365000,-0.828000,-12.015000,31.084000,-8.473000,29.52
5.905452,0.461000,-0.377000,-0.770000,-16.656000,22.794000,-11.634000,29.57
5.915222,0.334000,-0.360000,-0.709000,-23.634000,25.252000,-15.985000,29.47
5.925270,0.485000,-0.325000,-0.822000,-29.618000,17.710000,-21.527000,29.52
5.935239,0.495000,-0.346000,-0.790000,-36.626000,22.458000,-26.092000,29.52
5.945415,0.496000,-0.317000,-0.810000,-38.061000,19.344000,-30.015000,29.42
5.955358,0.525000,-0.258000,-0.834000,-34.519000,14.244000,-30.489000,29.47
5.965609,0.556000,-0.125000,-0.924000,-26.794000,12.229000,-28.076000,29.57
5.975248,0.510000,-0.178000,-0.877000,-21.069000,15.160000,-24.885000,29.61
5.985325,0.488000,-0.168000,-0.858000,-19.023000,19.359000,-24.305000,29.42
5.995412,0.491000,-0.219000,-0.850000,-20.351000,24.244000,-25.939000,29.57
6.005297,0.541000,-0.178000,-0.875000,-20.489000,27.450000,-27.328000,29.57
6.015374,0.514000,-0.212000,-0.838000,-22.489000,29.466000,-28.198000,29.52
6.025479,0.546000,-0.197000,-0.854000,-23.221000,30.672000,-27.802000,29.52
6.035342,0.580000,-0.209000,-0.848000,-23.969000,33.313000,-27.176000,29.57
6.045444,0.578000,-0.250000,-0.871000,-22.763000,34.122000,-26.290000,29.57
6.055300,0.523000,-0.461000,-0.773000,-26.595000,40.718000,-27.298000,29.42
6.065352,0.626000,-0.118000,-0.888000,-15.939000,28.901000,-30.229000,29.47
6.075045,0.566000,-0.330000,-0.796000,-18.046000,35.481000,-29.786000,29.57
6.084959,0.565000,-0.121000,-0.844000,-21.786000,45.740000,-30.611000,29.47
6.094938,0.540000,-0.099000,-0.807000,-22.046000,66.672000,-24.656000,29.52
6.104979,0.533000,-0.070000,-0.854000,-15.542000,72.840000,-20.229000,29.52
6.115065,0.523000,-0.031000,-0.840000,-11.237000,78.824000,-14.305000,29.47
6.125004,0.550000,-0.058000,-0.861000,-6.519000,91.695000,-7.267000,29.47
6.135026,0.493000,-0.083000,-0.876000,-7.939000,117.389000,-3.435000,29.57
6.145007,0.564000,-0.164000,-0.832000,-1.573000,137.252000,-4.855000,29.52
6.155029,0.413000,-0.196000,-0.853000,3.237000,172.427000,-9.130000,29.52
6.165177,0.460000,-0.191000,-0.825000,-3.176000,186.321000,-21.466000,29.57
6.175185,0.381000,-0.287000,-0.768000,-9.954000,215.863000,-31.634000,29.57
6.185144,0.603000,-0.247000,-0.804000,-13.145000,221.924000,-43.878000,29.42
6.195186,0.497000,-0.295000,-0.833000,-22.473000,247.099000,-59.557000,29.52
6.213770,0.522000,-0.327000,-0.836000,-26.366000,267.496000,-74.275000,29.47
6.215182,0.588000,-0.303000,-0.971000,-15.282000,288.779000,-80.824000,29.47
6.224900,1.135000,-0.542000,-1.215000,-7.282000,320.229000,-98.244000,29.52
6.236586,1.125000,-0.593000,-1.277000,35.924000,294.550000,-107.160000,29.42
6.246270,1.515000,-0.629000,-1.554000,31.939000,367.221000,-119.252000,29.57
6.254792,2.035000,-0.567000,-1.799000,16.763000,426.076000,-137.450000,29.47
6.264812,2.474000,-0.485000,-2.034000,-6.702000,407.771000,-173.267000,29.42
6.274860,2.100000,-0.856000,-2.640000,-29.603000,387.405000,-191.053000,29.57
6.284836,1.497000,-1.551000,-3.600000,-35.771000,325.435000,-166.550000,29.47
6.294834,-0.937000,-4.000000,-3.242000,-45.649000,130.137000,26.382000,29.47
6.304891,0.449000,-4.000000,-3.407000,-175.939000,128.885000,107.863000,29.52
6.314974,-1.394000,-2.152000,-2.435000,-233.267000,-118.519000,130.656000,29.52
6.324971,-1.307000,-0.644000,-2.289000,-199.374000,-104.382000,112.962000,29.47
6.334945,-1.089000,-0.128000,-2.771000,-99.740000,-131.053000,94.992000,29.47
6.344958,-0.639000,-0.256000,-2.620000,-36.687000,-182.153000,55.969000,29.42
6.355057,-0.455000,-0.774000,-2.122000,-25.954000,-262.000000,11.160000,29.52
6.365097,-0.062000,-0.668000,-1.822000,-22.763000,-339.771000,-25.817000,29.42
6.375009,0.179000,-0.506000,-1.580000,-17.450000,-357.725000,-49.511000,29.57
6.385141,0.523000,-0.466000,-1.390000,24.611000,-385.344000,-57.069000,29.47
6.395130,0.765000,-0.442000,-0.963000,62.031000,-369.313000,-56.092000,29.52
6.405068,0.886000,-0.579000,-0.767000,89.496000,-356.824000,-48.183000,29.52
6.415069,0.938000,-0.771000,-0.669000,100.351000,-338.366000,-32.580000,29.57
6.425145,1.052000,-0.875000,-0.674000,107.038000,-316.840000,-5.649000,29.47
6.435132,1.220000,-0.844000,-0.749000,108.198000,-282.168000,29.847000,29.52
6.445275,1.815000,-0.709000,-0.858000,120.122000,-244.000000,74.137000,29.52
6.455154,1.268000,-0.766000,-0.932000,111.618000,-231.328000,103.588000,29.57
6.465079,1.337000,-0.566000,-0.839000,103.908000,-200.489000,133.099000,29.57
6.474895,1.591000,-0.365000,-1.057000,99.069000,-182.412000,155.115000,29.52
6.484879,1.562000,-0.216000,-1.104000,89.435000,-171.160000,169.267000,29.57
6.494835,1.668000,-0.085000,-1.111000,78.305000,-163.542000,172.901000,29.57
6.504815,1.690000,-0.027000,-1.116000,63.756000,-165.450000,166.382000,29.47
6.514945,1.678000,0.131000,-1.041000,40.977000,-169.328000,150.244000,29.52
6.524793,1.765000,0.207000,-0.999000,50.748000,-192.107000,133.954000,29.52
6.534818,1.691000,0.317000,-0.880000,65.924000,-197.313000,119.328000,29.47
6.544793,1.691000,0.325000,-0.789000,80.290000,-182.580000,105.527000,29.57
6.554867,1.697000,0.352000,-0.699000,92.748000,-162.397000,96.565000,29.52
6.564809,1.742000,0.356000,-0.694000,102.351000,-144.809000,90.336000,29.52
6.574792,1.859000,0.386000,-0.711000,104.931000,-141.695000,84.489000,29.47
6.584795,1.827000,0.450000,-0.611000,106.626000,-137.924000,79.130000,29.57
6.594836,1.872000,0.483000,-0.547000,94.763000,-137.740000,72.565000,29.52
6.604878,1.907000,0.521000,-0.305000,80.183000,-125.374000,66.702000,29.52
6.614834,1.857000,0.553000,-0.116000,59.771000,-113.313000,59.603000,29.42
6.624920,1.879000,0.654000,0.007000,38.550000,-91.740000,56.840000,29.47
6.634876,1.875000,0.709000,0.088000,14.046000,-70.198000,54.260000,29.47
6.644860,1.900000,0.755000,0.082000,-46.412000,-25.298000,70.168000,29.52
6.654970,1.931000,0.974000,0.047000,-18.336000,-59.237000,39.420000,29.52
6.664907,1.862000,0.903000,0.155000,-50.641000,-7.420000,34.244000,29.47
6.674895,1.904000,0.970000,-0.149000,-46.763000,-15.038000,12.809000,29.57
6.684889,1.862000,0.884000,-0.208000,-52.962000,2.076000,-3.466000,29.52
6.694894,-0.302000,0.513000,0.204000,17.939000,-2.153000,-30.122000,29.57
6.705021,1.805000,0.675000,1.346000,-109.237000,62.412000,-53.542000,29.57
6.715088,1.432000,0.610000,1.148000,-64.107000,99.252000,-81.313000,29.47
6.725073,1.523000,0.071000,-1.501000,-45.435000,150.198000,-30.855000,29.52
6.735027,0.561000,-0.621000,-2.073000,-52.641000,107.359000,-31.466000,29.52
6.745161,-0.427000,-0.199000,-1.298000,-29.176000,136.412000,-73.420000,29.47
6.755082,0.435000,0.214000,-0.875000,-9.649000,188.641000,-101.298000,29.47
6.765198,1.642000,0.137000,-1.737000,1.221000,255.710000,-79.008000,29.52
6.775253,1.457000,0.312000,-1.807000,20.412000,192.031000,-83.893000,29.52
6.785161,1.424000,0.257000,-2.343000,-10.260000,199.710000,-83.985000,29.57
6.795227,1.077000,-0.741000,-1.068000,16.336000,76.427000,-65.802000,29.47
6.805257,1.003000,-0.976000,-0.771000,-16.763000,101.450000,-45.634000,29.61
6.815137,0.967000,-0.565000,-0.888000,-16.336000,23.435000,-32.015000,29.52
6.824902,0.913000,-0.342000,-1.104000,-37.664000,31.634000,-21.099000,29.57
6.834900,0.594000,-0.471000,-0.770000,-42.702000,39.695000,-15.695000,29.57
6.844966,0.382000,-0.607000,-0.752000,-49.344000,50.519000,-20.092000,29.52
6.854894,0.533000,-0.426000,-0.950000,-50.840000,40.580000,-25.099000,29.52
6.865070,0.401000,-0.292000,-0.898000,-48.183000,27.176000,-26.412000,29.52
6.874914,0.399000,-0.316000,-0.896000,-54.076000,36.061000,-29.481000,29.47
6.884926,0.592000,-0.233000,-0.972000,-54.061000,40.840000,-27.496000,29.47
6.894937,0.637000,-0.101000,-1.078000,-43.557000,40.519000,-22.046000,29.52
6.904940,0.499000,-0.150000,-0.917000,-32.901000,34.137000,-18.031000,29.47
6.914987,0.547000,-0.191000,-0.892000,-23.634000,32.260000,-14.076000,29.57
6.924960,0.562000,-0.206000,-0.895000,-15.679000,29.313000,-11.863000,29.47
6.934922,0.524000,-0.278000,-0.803000,-8.992000,27.191000,-11.374000,29.52
6.944919,0.524000,-0.275000,-0.870000,-9.618000,27.481000,-12.702000,29.52
6.955005,0.544000,-0.247000,-0.815000,-11.282000,26.504000,-15.053000,29.57
6.965065,0.537000,-0.262000,-0.821000,-15.557000,24.672000,-17.038000,29.57
6.975079,0.516000,-0.237000,-0.816000,-17.328000,19.878000,-19.527000,29.52
6.985050,0.519000,-0.273000,-0.815000,-20.473000,19.374000,-22.870000,29.52
6.995071,0.492000,-0.219000,-0.820000,-22.427000,21.802000,-24.000000,29.47
7.005055,0.511000,-0.233000,-0.819000,-24.473000,23.466000,-25.176000,29.47
7.015166,0.526000,-0.260000,-0.820000,-26.672000,25.359000,-27.344000,29.38
7.025226,0.534000,-0.264000,-0.834000,-28.031000,29.542000,-30.031000,29.52
7.035232,0.569000,-0.208000,-0.837000,-27.282000,33.878000,-29.756000,29.52
7.045146,0.533000,-0.153000,-0.817000,-25.313000,35.435000,-28.489000,29.57
7.055232,0.543000,-0.149000,-0.827000,-21.573000,39.511000,-28.321000,29.47
7.065346,0.563000,-0.221000,-0.817000,-17.969000,43.466000,-28.656000,29.52
7.075294,0.554000,-0.182000,-0.848000,-20.947000,50.733000,-28.779000,29.52
7.085162,0.643000,-0.142000,-0.814000,-24.153000,61.985000,-25.740000,29.47
7.095306,0.586000,-0.138000,-0.847000,-23.878000,68.931000,-24.504000,29.57
7.105196,0.568000,-0.140000,-0.845000,-22.260000,81.557000,-22.046000,29.52
7.115401,0.590000,-0.129000,-0.838000,-21.298000,97.252000,-20.443000,29.52
7.125227,0.548000,-0.097000,-0.823000,-26.885000,124.183000,-16.748000,29.57
7.135279,0.546000,-0.109000,-0.835000,-24.550000,138.595000,-14.229000,29.47
7.145190,0.504000,-0.095000,-0.836000,-25.573000,166.229000,-16.214000,29.47
7.155216,0.489000,-0.155000,-0.787000,-26.443000,192.198000,-24.656000,29.52
7.165141,0.494000,-0.133000,-0.794000,-29.496000,220.321000,-33.710000,29.47
7.175122,0.536000,-0.164000,-0.770000,-23.557000,229.130000,-41.359000,29.47
7.185087,0.556000,-0.177000,-0.729000,-25.893000,245.542000,-50.855000,29.47
7.195280,0.629000,-0.189000,-0.825000,-28.168000,269.267000,-63.420000,29.52
7.205457,0.553000,-0.312000,-0.826000,-43.267000,297.710000,-86.672000,29.61
7.215360,0.795000,-0.483000,-0.988000,-41.725000,328.733000,-112.824000,29.57
7.225250,1.105000,-0.681000,-1.205000,-0.534000,347.832000,-134.733000,29.47
7.235255,1.573000,-0.562000,-1.503000,47.023000,371.695000,-139.649000,29.52
7.245387,1.937000,-0.494000,-1.802000,48.168000,407.267000,-141.756000,29.52
7.255194,2.708000,-0.209000,-2.192000,6.244000,432.977000,-164.519000,29.47
7.265325,2.568000,-0.510000,-2.300000,-12.031000,418.718000,-196.244000,29.47
7.275261,2.494000,-0.903000,-2.530000,-55.344000,364.840000,-206.137000,29.42
7.285170,0.288000,-1.644000,-2.962000,-78.321000,275.145000,-166.122000,29.52
7.295232,0.298000,-4.000000,-3.597000,-80.260000,151.405000,23.771000,29.47
7.305124,1.113000,-3.458000,-4.000000,-131.298000,-135.389000,113.023000,29.47
7.315060,-1.329000,-2.183000,-2.351000,-182.840000,-61.252000,116.870000,29.52
7.325236,-1.042000,-0.453000,-1.994000,-115.252000,-244.107000,131.328000,29.52
7.335217,-1.348000,-0.406000,-2.083000,-5.573000,-336.137000,106.076000,29.42
7.345270,-0.518000,-0.434000,-2.238000,-22.718000,-143.542000,58.046000,29.57
7.355423,-0.279000,-0.803000,-2.083000,-55.664000,-186.947000,15.817000,29.47
7.365295,0.163000,-0.746000,-1.797000,-88.718000,-272.427000,-20.611000,29.52
7.375253,0.284000,-0.494000,-1.742000,-69.450000,-279.145000,-38.427000,29.57
7.385291,0.867000,-0.245000,-1.702000,-12.641000,-426.824000,-41.679000,29.47
7.395215,0.979000,-0.258000,-1.313000,17.695000,-435.313000,-52.702000,29.47
7.405229,0.908000,-0.468000,-0.974000,39.450000,-420.107000,-67.130000,29.61
7.415089,1.173000,-0.614000,-0.748000,48.733000,-410.611000,-67.634000,29.52
7.425329,1.116000,-0.696000,-0.514000,59.389000,-389.863000,-54.931000,29.47
7.435198,1.001000,-0.806000,-0.397000,83.191000,-361.878000,-29.298000,29.57
7.445275,1.137000,-0.876000,-0.372000,102.534000,-314.489000,10.641000,29.42
7.455127,1.147000,-0.944000,-0.432000,108.397000,-259.832000,53.924000,29.33
7.465247,1.302000,-1.023000,-0.674000,102.519000,-219.282000,91.786000,29.47
7.475289,1.502000,-0.976000,-0.994000,95.344000,-198.244000,127.542000,29.47
7.485169,1.595000,-0.699000,-1.090000,94.824000,-186.290000,163.588000,29.52
7.495208,1.553000,-0.295000,-1.090000,104.137000,-174.519000,187.344000,29.52
7.505107,1.575000,0.026000,-1.078000,104.473000,-163.237000,192.046000,29.47
7.515222,1.527000,0.184000,-0.779000,122.137000,-133.313000,184.153000,29.57
7.525180,1.532000,0.542000,-1.097000,104.153000,-134.107000,166.748000,29.42
7.535207,1.747000,0.555000,-1.025000,105.038000,-124.550000,150.687000,29.52
7.545223,1.954000,0.608000,-1.064000,122.718000,-150.504000,137.115000,29.57
7.555257,1.992000,0.657000,-1.026000,124.611000,-153.496000,121.618000,29.47
7.565162,2.125000,0.696000,-0.832000,126.504000,-149.557000,98.641000,29.52
7.575240,2.135000,0.861000,-0.839000,125.511000,-144.473000,80.519000,29.42
7.585165,2.248000,0.697000,-0.685000,123.420000,-143.511000,65.878000,29.47
7.595258,2.347000,0.729000,-0.382000,129.725000,-135.206000,58.122000,29.57
7.605099,2.347000,0.691000,-0.138000,118.992000,-163.053000,44.565000,29.47
7.615315,2.259000,0.674000,0.149000,111.023000,-142.183000,47.557000,29.52
7.625147,2.309000,0.651000,0.222000,110.947000,-149.481000,47.084000,29.42
7.635220,2.111000,0.752000,0.406000,85.985000,-96.153000,50.229000,29.47
7.645176,2.075000,0.772000,0.462000,51.710000,-68.412000,40.931000,29.57
7.655082,2.053000,0.917000,0.378000,16.824000,-45.649000,31.298000,29.42
7.665255,2.129000,0.939000,0.209000,-5.939000,-25.405000,23.679000,29.52
7.675046,2.203000,0.851000,0.041000,-22.260000,-13.328000,24.214000,29.57
7.685118,2.544000,0.386000,0.442000,-84.687000,37.282000,9.115000,29.47
7.695225,2.282000,1.439000,1.591000,-127.344000,40.321000,-25.023000,29.61
7.705051,0.180000,0.668000,0.145000,-72.214000,128.580000,-25.618000,29.52
7.715207,1.637000,0.016000,-2.582000,-67.634000,127.145000,-20.672000,29.47
7.725257,0.013000,-0.573000,-1.876000,-71.389000,70.916000,-39.267000,29.47
7.735304,-0.552000,-0.205000,-0.627000,-50.046000,113.481000,-79.603000,29.42
7.745161,0.325000,0.148000,-0.611000,-17.328000,146.473000,-85.618000,29.57
7.755196,1.505000,0.333000,-2.147000,-2.321000,159.405000,-80.992000,29.57
7.764988,0.954000,0.802000,-1.792000,-3.817000,171.405000,-76.046000,29.47
7.775131,0.839000,0.457000,-1.529000,32.931000,188.122000,-85.328000,29.52
7.785098,1.017000,-0.529000,-1.251000,27.817000,151.649000,-69.985000,29.52
7.795102,1.266000,-1.175000,-0.851000,18.168000,79.969000,-46.031000,29.57
7.805102,1.089000,-0.889000,-0.988000,-4.916000,58.550000,-32.626000,29.47
7.815219,0.818000,-0.416000,-1.015000,-10.962000,48.122000,-25.450000,29.42
7.825114,0.748000,-0.510000,-0.917000,-20.397000,45.832000,-23.496000,29.61
7.835282,0.642000,-0.719000,-0.726000,-28.076000,32.565000,-21.710000,29.57
7.845252,0.594000,-0.599000,-0.842000,-35.802000,29.893000,-25.328000,29.47
7.855230,0.468000,-0.318000,-0.915000,-38.702000,-3.481000,-26.931000,29.52
7.865246,0.479000,-0.298000,-0.892000,-37.954000,-0.305000,-27.221000,29.52
7.875219,0.461000,-0.244000,-0.884000,-39.115000,20.351000,-26.840000,29.47
7.885235,0.485000,-0.132000,-0.958000,-34.153000,34.412000,-24.748000,29.66
7.895232,0.471000,-0.114000,-0.927000,-23.420000,30.947000,-21.405000,29.47
7.905203,0.494000,-0.204000,-0.915000,-15.588000,27.023000,-17.435000,29.52
7.915292,0.495000,-0.277000,-0.884000,-9.954000,27.756000,-14.458000,29.52
7.925213,0.465000,-0.332000,-0.826000,-12.183000,36.092000,-14.947000,29.47
7.935151,0.521000,-0.368000,-0.825000,-15.740000,41.496000,-16.595000,29.47
7.945228,0.520000,-0.341000,-0.789000,-20.214000,41.939000,-19.023000,29.52
7.955076,0.453000,-0.301000,-0.776000,-23.954000,36.840000,-21.435000,29.47
7.965194,0.464000,-0.343000,-0.752000,-35.344000,36.763000,-26.000000,29.57
7.975164,0.500000,-0.382000,-0.773000,-47.237000,36.733000,-30.809000,29.38
7.985127,0.498000,-0.324000,-0.790000,-54.443000,37.435000,-33.634000,29.42
7.995167,0.561000,-0.205000,-0.940000,-51.282000,34.550000,-34.550000,29.52
8.005166,0.560000,-0.253000,-0.908000,-46.321000,32.427000,-34.687000,29.47
8.015169,0.542000,-0.251000,-0.856000,-40.107000,25.267000,-34.718000,29.47
8.025241,0.545000,-0.253000,-0.872000,-37.359000,23.038000,-33.344000,29.52
8.035304,0.570000,-0.209000,-0.891000,-36.397000,28.046000,-33.115000,29.52
8.045250,0.537000,-0.225000,-0.807000,-36.595000,31.405000,-33.221000,29.47
8.055289,0.574000,-0.190000,-0.826000,-34.595000,32.748000,-34.122000,29.47
8.065206,0.711000,-0.485000,-0.785000,-37.756000,32.840000,-32.153000,29.52
8.075254,0.541000,-0.078000,-0.822000,-17.802000,43.313000,-35.939000,29.52
8.085343,0.533000,-0.307000,-0.849000,-28.137000,63.618000,-33.832000,29.42
8.095249,0.574000,-0.099000,-0.822000,-26.580000,69.634000,-30.962000,29.57
8.105230,0.495000,-0.166000,-0.880000,-27.084000,87.237000,-24.916000,29.57
8.115143,0.526000,-0.174000,-0.895000,-27.863000,112.183000,-21.130000,29.52
8.125284,0.549000,-0.208000,-0.862000,-31.145000,147.634000,-20.290000,29.52
8.135343,0.533000,-0.128000,-0.878000,-27.588000,176.168000,-25.008000,29.47
8.145296,0.439000,-0.066000,-0.849000,-40.321000,231.069000,-25.344000,29.47
8.155209,0.463000,-0.070000,-0.806000,-30.656000,255.115000,-32.260000,29.52
8.165331,0.556000,-0.144000,-0.826000,-16.580000,256.962000,-37.969000,29.47
8.175266,0.551000,-0.259000,-0.872000,1.603000,251.405000,-44.809000,29.38
8.185291,0.509000,-0.202000,-0.889000,-0.305000,230.153000,-59.573000,29.57
8.195309,0.784000,-0.239000,-1.009000,3.863000,261.282000,-75.420000,29.52
8.205018,0.705000,-0.429000,-1.151000,18.626000,301.496000,-101.435000,29.42
8.214947,1.065000,-0.569000,-1.140000,1.237000,309.145000,-110.611000,29.47
8.224960,1.387000,-0.615000,-1.573000,9.725000,378.168000,-128.244000,29.38
8.234949,1.877000,-0.494000,-1.754000,12.916000,408.565000,-135.832000,29.52
8.244921,2.526000,-0.248000,-2.088000,4.107000,420.397000,-153.069000,29.61
8.254947,2.446000,-0.489000,-2.372000,-0.489000,392.489000,-183.389000,29.47
8.265051,2.441000,-0.852000,-3.013000,-35.603000,332.840000,-189.206000,29.57
8.275030,0.053000,-1.594000,-2.694000,-36.534000,253.298000,-154.153000,29.52
8.285021,0.170000,-3.782000,-4.000000,-7.298000,121.130000,-43.878000,29.52
8.295043,0.870000,-3.123000,-4.000000,-136.336000,-63.069000,-10.504000,29.47
8.305093,-1.483000,-2.099000,-1.815000,-163.481000,-130.626000,13.252000,29.47
8.315169,-0.852000,-1.041000,-2.191000,-115.954000,-151.130000,22.763000,29.42
8.325193,-0.744000,-0.612000,-2.194000,-28.718000,-156.122000,32.092000,29.52
8.335206,0.999000,-0.870000,-1.837000,10.916000,-170.733000,15.786000,29.47
8.345207,0.090000,-1.273000,-1.721000,62.458000,-200.473000,-21.191000,29.57
8.355122,-0.008000,-0.608000,-1.650000,5.313000,-393.802000,-13.985000,29.57
8.365092,0.302000,-0.282000,-1.439000,-10.229000,-285.924000,-29.099000,29.52
8.375311,0.305000,-0.090000,-1.272000,35.298000,-237.359000,-41.191000,29.57
8.385192,0.499000,-0.208000,-1.000000,92.351000,-312.244000,-52.412000,29.47
8.395239,0.502000,-0.499000,-0.887000,116.962000,-317.130000,-51.466000,29.47
8.405232,0.795000,-0.578000,-0.777000,130.748000,-331.069000,-35.115000,29.42
8.415251,0.715000,-0.675000,-0.744000,125.084000,-300.565000,-12.733000,29.42
8.425262,0.787000,-0.627000,-0.812000,122.275000,-257.450000,13.924000,29.47
8.435291,0.925000,-0.583000,-1.038000,123.878000,-231.817000,47.099000,29.47
8.445397,1.016000,-0.531000,-0.913000,133.740000,-212.183000,79.954000,29.52
8.455175,1.083000,-0.489000,-1.026000,128.870000,-211.695000,105.145000,29.52
8.465332,1.109000,-0.488000,-1.053000,116.137000,-205.725000,125.115000,29.47
8.475281,1.150000,-0.401000,-1.101000,105.588000,-215.542000,141.954000,29.47
8.485264,1.232000,-0.394000,-1.167000,97.557000,-206.229000,157.420000,29.42
8.495291,1.371000,-0.305000,-1.234000,92.382000,-195.939000,173.206000,29.61
8.505322,1.521000,-0.147000,-1.275000,93.069000,-186.351000,183.206000,29.57
8.515143,1.649000,-0.025000,-1.244000,92.794000,-180.809000,186.626000,29.47
8.525256,1.831000,0.095000,-1.184000,102.870000,-188.031000,183.802000,29.57
8.535182,1.959000,0.176000,-1.131000,99.511000,-188.351000,181.847000,29.52
8.545191,2.204000,0.248000,-1.055000,92.198000,-176.855000,172.840000,29.42
8.555375,2.281000,0.278000,-0.996000,86.611000,-168.870000,163.527000,29.47
8.565268,2.735000,0.392000,-0.952000,87.389000,-187.298000,151.115000,29.57
8.575317,2.455000,0.470000,-0.657000,97.618000,-170.611000,143.863000,29.42
8.585206,2.629000,0.674000,-0.459000,106.626000,-168.000000,133.328000,29.57
8.595368,2.460000,0.806000,-0.191000,120.275000,-147.603000,122.763000,29.47
8.605281,2.531000,0.860000,-0.089000,133.557000,-128.427000,116.962000,29.38
8.615294,2.477000,0.992000,0.334000,133.557000,-89.359000,110.687000,29.42
8.625288,2.134000,-2.022000,0.792000,-198.641000,168.275000,262.916000,29.52
8.635238,2.619000,1.039000,0.387000,105.771000,-174.229000,40.901000,29.47
8.645260,2.115000,0.901000,0.594000,30.611000,-13.099000,40.992000,29.57
8.655219,2.266000,1.049000,0.956000,-10.153000,-30.641000,-1.557000,29.52
8.665257,2.540000,0.853000,1.076000,-187.924000,55.069000,18.076000,29.52
8.675295,3.525000,1.539000,1.498000,-139.542000,64.962000,-2.382000,29.47
8.685239,0.104000,1.195000,0.787000,-85.756000,200.779000,20.153000,29.47
8.695247,0.874000,0.921000,-2.740000,-89.298000,243.099000,17.695000,29.52
8.705320,-0.430000,1.040000,-2.571000,-31.160000,75.344000,-41.267000,29.52
8.715227,-0.598000,1.089000,-1.359000,-15.817000,92.489000,-113.634000,29.61
8.725257,1.398000,0.100000,-1.173000,36.763000,144.290000,-130.382000,29.38
8.735232,2.114000,-0.288000,-2.198000,51.359000,271.435000,-86.565000,29.38
8.745108,1.434000,-0.264000,-1.707000,36.229000,195.725000,-94.748000,29.52
8.755105,1.313000,-0.628000,-1.851000,-20.107000,186.718000,-79.863000,29.52
8.765305,1.367000,-1.299000,-0.999000,-37.664000,75.908000,-64.244000,29.47
8.775417,0.921000,-0.951000,-1.317000,-81.695000,51.145000,-38.962000,29.47
8.785307,0.978000,-0.462000,-1.127000,-67.710000,29.511000,-34.183000,29.42
8.795367,0.745000,-0.556000,-0.887000,-70.260000,18.809000,-29.954000,29.57
8.805464,0.613000,-0.771000,-0.730000,-77.038000,35.985000,-30.534000,29.47
8.815266,0.384000,-0.228000,-0.988000,-72.198000,45.374000,-33.725000,29.47
8.825372,0.587000,-0.460000,-0.822000,-68.107000,60.519000,-36.076000,29.52
8.835274,0.358000,-0.281000,-0.886000,-54.015000,-10.901000,-35.313000,29.52
8.845297,0.394000,-0.222000,-0.856000,-47.069000,-1.237000,-33.679000,29.57
8.855326,0.537000,-0.129000,-0.946000,-42.473000,26.382000,-29.908000,29.47
8.865041,0.482000,-0.095000,-0.928000,-36.580000,43.954000,-24.687000,29.52
8.879528,0.482000,-0.174000,-0.919000,-30.122000,40.962000,-21.542000,29.52
8.886048,0.481000,-0.196000,-0.823000,-25.786000,28.992000,-20.427000,29.47
8.895248,0.482000,-0.357000,-0.784000,-28.550000,21.924000,-22.840000,29.47
8.904872,0.535000,-0.321000,-0.847000,-34.107000,10.718000,-28.229000,29.52
8.914988,0.533000,-0.361000,-0.788000,-43.344000,15.817000,-32.656000,29.61
8.924753,0.545000,-0.320000,-0.879000,-46.305000,8.305000,-38.244000,29.47
8.934732,0.522000,-0.320000,-0.886000,-46.962000,2.214000,-42.351000,29.47
8.944827,0.518000,-0.127000,-0.878000,-52.519000,-6.229000,-45.481000,29.52
8.954808,0.553000,-0.190000,-0.800000,-45.969000,5.603000,-43.985000,29.42
8.964794,0.513000,-0.120000,-0.855000,-39.954000,0.519000,-39.374000,29.47
8.974797,0.468000,-0.147000,-0.874000,-37.695000,15.466000,-34.076000,29.66
8.984791,0.501000,-0.099000,-0.896000,-31.771000,21.603000,-31.435000,29.47
8.994891,0.512000,-0.148000,-0.862000,-28.794000,27.511000,-30.244000,29.42
9.004857,0.514000,-0.141000,-0.869000,-25.466000,33.481000,-30.183000,29.47
9.014840,0.477000,0.309000,-0.956000,-5.908000,36.000000,-40.626000,29.47
9.024882,0.544000,-0.049000,-0.807000,-23.405000,59.573000,-31.802000,29.47
9.034847,0.578000,-0.216000,-0.876000,-19.924000,57.450000,-30.962000,29.52
9.044879,0.557000,-0.069000,-0.849000,-19.237000,65.252000,-28.931000,29.42
9.054898,0.549000,-0.099000,-0.847000,-18.275000,71.282000,-24.489000,29.57
9.065012,0.538000,-0.029000,-0.885000,-16.763000,84.977000,-20.473000,29.47
9.074963,0.491000,-0.072000,-0.870000,-16.534000,99.496000,-17.130000,29.52
9.085001,0.529000,-0.153000,-0.872000,-19.267000,118.718000,-16.702000,29.42
9.094957,0.549000,-0.172000,-0.846000,-23.725000,143.023000,-16.656000,29.47
9.105013,0.522000,-0.141000,-0.877000,-27.756000,167.008000,-20.992000,29.47
9.115023,0.419000,-0.139000,-0.820000,-32.534000,195.191000,-31.069000,29.42
9.125178,0.488000,-0.130000,-0.838000,-34.870000,218.305000,-44.473000,29.52
9.135128,0.535000,-0.054000,-0.788000,-35.389000,239.939000,-51.252000,29.47
9.145120,0.630000,-0.086000,-0.687000,-31.282000,253.466000,-57.359000,29.47
9.155230,0.680000,-0.130000,-0.799000,-29.618000,273.313000,-65.511000,29.61
9.165308,0.495000,-0.159000,-0.731000,-46.855000,292.000000,-83.130000,29.52
9.175231,0.780000,-0.131000,-0.835000,-59.939000,310.260000,-99.282000,29.61
9.185182,0.886000,-0.224000,-0.873000,-70.534000,339.542000,-116.092000,29.47
9.195218,1.055000,-0.283000,-0.998000,-81.252000,371.267000,-135.832000,29.47
9.205110,1.474000,-0.343000,-1.152000,-78.260000,399.557000,-146.015000,29.42
9.215037,1.946000,-0.351000,-1.393000,-23.908000,439.267000,-131.710000,29.38
9.225139,2.598000,-0.342000,-1.799000,71.481000,409.466000,-108.947000,29.57
9.235150,2.327000,-0.138000,-1.855000,39.115000,408.947000,-135.069000,29.47
9.245016,2.190000,-0.332000,-2.324000,-42.779000,382.962000,-171.115000,29.52
9.254788,1.507000,-0.878000,-2.173000,-96.443000,327.878000,-183.878000,29.52
9.264886,1.434000,-1.270000,-1.787000,-135.008000,203.130000,-175.313000,29.47
9.274826,-0.586000,-2.792000,-4.000000,-16.702000,139.817000,-30.763000,29.47
9.284744,3.284000,-2.634000,-4.000000,-59.878000,-68.031000,63.573000,29.42
9.294811,-0.519000,-2.718000,-2.292000,-107.954000,-222.718000,82.290000,29.42
9.304949,-0.690000,-1.431000,-1.641000,-111.542000,-209.756000,106.137000,29.47
9.314799,-0.066000,-0.727000,-1.961000,-67.740000,-270.687000,118.641000,29.47
9.324802,-0.124000,-0.909000,-1.771000,-54.870000,-164.519000,123.908000,29.52
9.334762,-0.015000,-0.594000,-1.809000,-76.412000,-203.588000,89.817000,29.42
9.344799,0.075000,-0.428000,-1.756000,-120.000000,-254.809000,29.863000,29.38
9.354909,0.214000,0.199000,-1.728000,-123.542000,-325.618000,-41.603000,29.57
9.364845,0.434000,0.840000,-1.677000,-56.687000,-397.679000,-104.168000,29.52
9.374807,0.767000,0.845000,-1.547000,39.252000,-396.168000,-147.160000,29.42
9.384826,1.046000,0.208000,-1.201000,106.840000,-411.023000,-168.168000,29.42
9.394852,0.984000,-0.242000,-0.747000,134.000000,-396.031000,-173.603000,29.47
9.404867,0.892000,-0.458000,-0.511000,144.382000,-393.832000,-162.229000,29.47
9.414961,1.009000,-0.552000,-0.459000,156.214000,-336.321000,-127.603000,29.52
9.424888,1.077000,-0.598000,-0.596000,182.351000,-298.168000,-75.939000,29.47
9.434869,1.122000,-0.677000,-0.732000,202.855000,-258.702000,-20.092000,29.47
9.444894,1.550000,-0.839000,-0.845000,210.870000,-237.420000,43.863000,29.47
9.454981,1.205000,-0.673000,-0.798000,204.870000,-215.817000,88.855000,29.52
9.465071,0.997000,-0.498000,-1.039000,208.809000,-202.855000,125.160000,29.42
9.475045,1.599000,-0.467000,-1.260000,218.443000,-181.420000,164.229000,29.47
9.484995,1.458000,-0.481000,-1.210000,201.191000,-168.275000,191.939000,29.57
9.495042,1.507000,-0.125000,-1.365000,172.366000,-155.618000,207.206000,29.42
9.505048,1.531000,0.197000,-1.298000,155.420000,-165.802000,206.519000,29.52
