# Gait Analysis Data - MPU6050 IMU
# Duration: 10 seconds
# Format: timestamp(s),ax(g),ay(g),az(g),gx(deg/s),gy(deg/s),gz(deg/s),temp(C)
# Note: Document sensor placement (ankle/wrist) separately
timestamp,ax,ay,az,gx,gy,gz,temp
0.000938,-0.262000,-0.327000,-1.089000,-50.733000,21.802000,4.397000,29.75
0.001641,-0.479000,-1.299000,-1.739000,-62.534000,-43.466000,5.359000,29.66
0.002275,-1.083000,-1.257000,-0.045000,-94.687000,-28.229000,-9.206000,29.71
0.002925,-0.143000,-0.349000,-0.321000,-80.885000,96.305000,-52.336000,29.71
0.003994,0.468000,0.209000,-0.719000,-71.405000,151.924000,-55.969000,29.75
0.005103,0.417000,0.446000,-1.619000,-45.450000,190.504000,-74.901000,29.66
0.006010,0.167000,0.374000,-2.219000,-34.794000,192.000000,-98.824000,29.71
0.006720,0.406000,0.152000,-1.959000,-5.038000,118.870000,-108.260000,29.75
0.007425,0.522000,-0.269000,-1.213000,20.397000,108.122000,-101.481000,29.75
0.008115,0.458000,-0.592000,-1.074000,35.267000,109.969000,-92.534000,29.75
0.009105,0.453000,-0.614000,-0.803000,34.580000,127.328000,-88.748000,29.71
0.010234,1.106000,-1.189000,-0.979000,5.634000,108.733000,-76.840000,29.80
0.011199,1.024000,-1.149000,-0.612000,-9.374000,94.641000,-60.779000,29.85
0.011792,0.927000,-0.951000,-0.841000,-25.527000,69.557000,-45.252000,29.75
0.012488,0.622000,-0.682000,-0.769000,-38.794000,41.115000,-41.740000,29.75
0.013390,0.534000,-0.826000,-0.613000,-53.847000,22.611000,-40.321000,29.71
0.014297,0.571000,-0.890000,-0.660000,-68.870000,20.855000,-39.099000,29.80
0.015208,0.527000,-0.714000,-0.815000,-72.702000,30.321000,-38.260000,29.75
0.016102,0.461000,-0.435000,-0.968000,-67.954000,35.649000,-36.885000,29.66
0.016857,0.395000,-0.352000,-0.958000,-60.031000,17.771000,-33.206000,29.80
0.017592,0.355000,-0.375000,-0.909000,-58.305000,7.603000,-30.168000,29.61
0.018380,0.374000,-0.401000,-0.892000,-54.031000,6.840000,-27.924000,29.75
0.019093,0.375000,-0.360000,-0.872000,-47.374000,14.977000,-26.656000,29.66
0.019806,0.343000,-0.402000,-0.769000,-44.351000,24.947000,-28.748000,29.66
0.020610,0.389000,-0.473000,-0.727000,-50.718000,23.115000,-30.504000,29.71
0.021412,0.354000,-0.454000,-0.607000,-70.229000,16.885000,-35.099000,29.71
0.022208,0.406000,-0.544000,-0.541000,-100.672000,7.725000,-40.244000,29.66
0.022993,0.468000,-0.615000,-0.596000,-128.901000,1.695000,-48.916000,29.75
0.023783,0.528000,-0.689000,-0.771000,-136.931000,-0.214000,-51.435000,29.80
0.024504,0.584000,-0.417000,-0.954000,-128.595000,-3.847000,-47.237000,29.71
0.025205,0.453000,-0.374000,-0.799000,-124.794000,-13.267000,-45.649000,29.75
0.026283,0.424000,-0.194000,-0.933000,-118.015000,-11.389000,-38.992000,29.75
0.030994,0.437000,-0.241000,-0.972000,-107.450000,-3.053000,-38.122000,29.80
0.033962,0.485000,-0.160000,-0.893000,-112.168000,19.008000,-31.527000,29.75
0.034813,0.440000,-0.084000,-1.048000,-81.282000,17.924000,-33.084000,29.75
0.038845,0.432000,-0.133000,-0.967000,-59.435000,19.542000,-31.756000,29.75
0.039671,0.439000,-0.183000,-0.892000,-48.672000,22.824000,-30.840000,29.71
0.042845,0.451000,-0.178000,-0.912000,-40.092000,21.786000,-27.191000,29.80
0.043551,0.481000,-0.186000,-0.916000,-36.992000,28.107000,-23.405000,29.75
0.044243,0.483000,-0.258000,-0.862000,-34.489000,26.473000,-21.420000,29.75
0.044930,0.468000,-0.244000,-0.854000,-33.740000,27.985000,-21.618000,29.66
0.045615,0.419000,-0.512000,-0.848000,-15.649000,27.802000,-26.366000,29.71
0.046234,0.437000,-0.185000,-0.875000,-30.519000,36.076000,-28.702000,29.80
0.046851,0.391000,-0.272000,-0.809000,-30.198000,46.901000,-34.580000,29.75
0.047478,0.428000,-0.481000,-0.782000,-37.008000,59.282000,-34.534000,29.75
0.048093,0.392000,-0.303000,-0.873000,-45.313000,79.756000,-42.168000,29.80
0.048705,0.460000,-0.337000,-0.844000,-56.260000,96.076000,-42.092000,29.71
0.049323,0.473000,-0.110000,-0.912000,-54.824000,122.290000,-39.817000,29.75
0.049947,0.455000,-0.174000,-0.865000,-62.809000,143.618000,-36.122000,29.66
0.050565,0.443000,-0.073000,-0.859000,-65.603000,166.122000,-37.069000,29.71
0.051176,0.392000,0.006000,-0.805000,-67.328000,192.015000,-41.893000,29.80
0.051890,0.438000,-0.064000,-0.836000,-57.069000,216.275000,-46.321000,29.75
0.052597,0.368000,-0.079000,-0.884000,-41.191000,227.527000,-50.870000,29.75
0.053395,0.413000,-0.054000,-0.815000,-47.344000,254.229000,-59.634000,29.71
0.053990,0.675000,-0.128000,-0.883000,-60.198000,264.351000,-73.191000,29.80
0.054615,0.467000,-0.185000,-0.990000,-71.344000,286.885000,-87.756000,29.75
0.055198,0.754000,-0.352000,-1.052000,-75.802000,274.641000,-111.878000,29.75
0.055767,1.651000,-0.330000,-0.731000,-69.221000,303.389000,-10.947000,29.66
0.056338,0.975000,-0.302000,-1.397000,-82.473000,370.183000,-46.244000,29.71
0.056907,1.336000,-0.300000,-1.526000,-53.191000,422.397000,-110.702000,29.75
0.057472,1.872000,-0.628000,-2.518000,50.824000,339.786000,-142.153000,29.75
0.058035,1.290000,-0.402000,-1.675000,67.405000,372.748000,-191.267000,29.75
0.058600,1.087000,-0.054000,-1.425000,-21.588000,366.214000,-279.313000,29.80
0.059171,3.644000,-0.528000,-0.773000,-259.664000,500.260000,-105.038000,29.71
0.059735,1.131000,-0.663000,-2.679000,-70.779000,207.435000,-160.748000,29.75
0.060411,0.347000,-0.755000,-2.034000,-37.954000,97.756000,-112.046000,29.66
0.061149,-0.155000,-4.000000,-4.000000,30.198000,-13.573000,-34.168000,29.71
0.061743,1.180000,-2.149000,-4.000000,-117.863000,-317.847000,8.031000,29.71
0.062331,-1.702000,-1.529000,-0.730000,-121.710000,-356.763000,-4.336000,29.75
0.062903,-0.343000,-0.972000,-1.747000,-82.962000,-354.244000,-9.145000,29.75
0.063637,-0.048000,-1.055000,-2.077000,-24.519000,-410.122000,5.588000,29.71
0.064190,-0.090000,-1.251000,-1.584000,-15.695000,-259.908000,3.740000,29.71
0.064710,0.137000,-1.244000,-1.358000,4.565000,-262.382000,1.527000,29.66
0.065316,0.165000,-1.019000,-1.016000,2.656000,-316.641000,-6.290000,29.66
0.065900,0.227000,-0.770000,-0.798000,11.618000,-344.321000,-12.031000,29.71
0.066447,0.358000,-0.582000,-0.767000,42.092000,-340.931000,-12.504000,29.75
0.066960,0.584000,-0.703000,-0.839000,81.023000,-304.015000,-6.458000,29.75
0.067477,0.747000,-0.874000,-0.882000,109.130000,-275.985000,7.542000,29.75
0.067996,0.939000,-0.953000,-1.008000,127.237000,-259.359000,30.305000,29.71
0.068514,1.004000,-0.877000,-1.036000,132.565000,-254.153000,54.672000,29.80
0.069025,0.953000,-0.746000,-1.020000,135.084000,-259.679000,74.962000,29.66
0.069541,0.979000,-0.570000,-1.021000,144.397000,-261.786000,87.221000,29.75
0.070056,1.020000,-0.431000,-1.047000,155.847000,-258.763000,93.618000,29.71
0.070576,1.064000,-0.403000,-1.125000,170.198000,-247.145000,96.977000,29.71
0.071095,1.113000,-0.412000,-1.156000,183.603000,-232.702000,102.458000,29.75
0.071613,1.087000,-0.425000,-1.240000,198.733000,-214.229000,112.153000,29.85
0.072136,1.139000,-0.450000,-1.327000,212.672000,-190.687000,122.641000,29.80
0.072654,1.228000,-0.439000,-1.335000,221.847000,-177.618000,135.084000,29.80
0.073172,1.429000,-0.462000,-1.432000,227.267000,-149.435000,142.656000,29.75
0.073786,1.699000,-0.341000,-1.588000,242.931000,-132.137000,144.626000,29.75
0.074435,2.065000,-0.214000,-1.682000,253.328000,-121.099000,152.412000,29.80
0.074972,2.248000,-0.005000,-1.609000,262.916000,-134.580000,169.374000,29.71
0.075539,2.597000,0.204000,-0.721000,251.847000,-92.611000,184.870000,29.80
0.076071,2.880000,0.723000,-0.767000,209.710000,-15.817000,192.153000,29.75
0.076573,3.117000,1.478000,-1.392000,202.336000,-31.634000,205.481000,29.75
0.077051,3.125000,2.047000,-1.333000,200.275000,-61.649000,213.466000,29.80
0.077529,2.857000,2.314000,-0.025000,156.702000,-67.405000,185.282000,29.66
0.077996,2.812000,2.379000,0.986000,75.557000,-43.328000,116.794000,29.75
0.078476,3.330000,2.447000,0.608000,4.275000,21.771000,60.351000,29.75
0.078988,3.634000,2.517000,0.985000,-28.962000,84.763000,50.779000,29.61
0.079460,4.000000,2.536000,2.028000,-116.702000,165.756000,61.038000,29.71
0.079925,1.013000,1.983000,0.320000,-73.618000,220.504000,49.053000,29.75
0.080430,-1.653000,0.248000,-3.853000,-28.656000,50.611000,0.229000,29.75
0.080917,-2.144000,0.584000,-2.076000,-46.565000,20.061000,-78.290000,29.71
0.081396,-0.076000,0.389000,-0.481000,-22.382000,148.718000,-148.366000,29.71
0.081904,2.071000,0.153000,-2.554000,33.466000,237.695000,-119.435000,29.75
0.082378,1.539000,-0.421000,-2.423000,-8.595000,186.626000,-116.351000,29.66
0.082855,1.157000,-0.743000,-1.403000,-31.069000,130.763000,-95.924000,29.71
0.083323,1.083000,-0.963000,-0.537000,-33.725000,87.359000,-56.031000,29.71
0.083864,0.671000,-0.794000,-0.626000,-38.137000,41.038000,-47.206000,29.75
0.084446,0.867000,-1.108000,-0.445000,-66.092000,0.977000,-46.412000,29.75
0.084943,0.817000,-1.043000,-0.361000,-109.053000,-4.885000,-44.901000,29.71
0.085413,0.520000,-0.674000,-0.725000,-128.550000,-11.618000,-49.221000,29.71
0.085864,0.523000,-0.556000,-0.729000,-161.832000,6.687000,-58.748000,29.75
0.086326,0.499000,-0.608000,-0.582000,-185.344000,-11.008000,-64.885000,29.75
0.086787,0.480000,-0.393000,-0.906000,-210.702000,-4.840000,-59.221000,29.75
0.087247,0.518000,0.044000,-1.391000,-186.076000,15.496000,-53.603000,29.71
0.087696,0.515000,0.164000,-1.301000,-143.374000,38.702000,-45.099000,29.66
0.088154,0.383000,0.166000,-1.218000,-85.221000,14.534000,-32.366000,29.75
0.088605,0.477000,0.081000,-1.216000,-52.580000,17.206000,-17.939000,29.75
0.089052,0.428000,-0.048000,-1.042000,-17.710000,4.321000,-7.282000,29.80
0.089509,0.395000,-0.129000,-0.959000,-9.588000,14.870000,-6.504000,29.71
0.089959,0.451000,-0.241000,-0.891000,-14.382000,27.908000,-7.420000,29.66
0.090537,0.460000,-0.272000,-0.848000,-22.763000,39.267000,-6.244000,29.66
0.091114,0.479000,-0.266000,-0.870000,-20.947000,27.863000,-6.656000,29.71
0.091586,0.478000,-0.255000,-0.851000,-20.183000,21.832000,-6.504000,29.71
0.092040,0.457000,-0.212000,-0.868000,-17.481000,14.977000,-7.313000,29.66
0.092498,0.467000,-0.253000,-0.860000,-18.214000,10.916000,-8.443000,29.66
0.092959,0.469000,-0.246000,-0.865000,-21.405000,10.107000,-10.351000,29.71
0.093411,0.472000,-0.233000,-0.869000,-22.687000,8.947000,-11.450000,29.71
0.093869,0.449000,-0.221000,-0.869000,-22.260000,7.221000,-11.664000,29.75
0.094370,0.481000,-0.194000,-0.883000,-21.893000,6.107000,-10.992000,29.66
0.094838,0.506000,-0.176000,-0.930000,-18.947000,3.908000,-10.366000,29.75
0.095278,0.477000,-0.165000,-0.890000,-15.679000,3.802000,-9.191000,29.71
0.095716,0.520000,-0.156000,-0.937000,-10.916000,-0.153000,-6.916000,29.71
0.096142,0.484000,-0.104000,-0.902000,-7.679000,3.649000,-4.351000,29.75
0.096580,0.459000,-0.111000,-0.875000,-3.802000,3.176000,-1.618000,29.75
0.097001,0.456000,-0.173000,-0.882000,1.328000,1.817000,0.015000,29.80
0.097421,0.451000,-0.157000,-0.899000,4.168000,5.740000,1.053000,29.75
0.097836,0.433000,-0.189000,-0.896000,8.382000,9.023000,2.351000,29.75
0.098260,0.441000,-0.211000,-0.858000,8.275000,14.397000,2.305000,29.75
0.098688,0.477000,-0.202000,-0.903000,11.832000,12.656000,3.389000,29.71
0.099133,0.460000,-0.181000,-0.890000,13.969000,16.092000,4.107000,29.71
0.099603,0.459000,-0.194000,-0.899000,16.489000,15.649000,4.947000,29.66
0.100068,0.481000,-0.195000,-0.917000,19.191000,16.962000,5.771000,29.75
0.100522,0.495000,-0.168000,-0.927000,23.313000,16.260000,7.710000,29.80
0.100968,0.503000,-0.194000,-0.930000,27.435000,14.305000,10.122000,29.71
0.101395,0.507000,-0.233000,-0.884000,28.626000,7.130000,10.779000,29.66
0.101818,0.525000,-0.457000,-0.836000,29.115000,5.786000,13.496000,29.66
0.102246,0.565000,-0.272000,-0.903000,29.359000,-1.160000,10.992000,29.80
0.102669,0.533000,-0.251000,-0.882000,30.260000,0.977000,7.710000,29.71
0.103095,0.563000,-0.217000,-0.908000,33.450000,-8.122000,7.664000,29.85
0.103519,0.524000,-0.174000,-0.881000,36.504000,-14.458000,6.092000,29.66
0.103944,0.478000,-0.191000,-0.865000,36.015000,-21.374000,5.298000,29.75
0.104458,0.392000,-0.124000,-0.837000,40.122000,-29.496000,0.336000,29.71
0.105019,0.398000,-0.246000,-0.815000,44.641000,-34.168000,-2.565000,29.71
0.105517,0.356000,-0.207000,-0.861000,43.527000,-33.893000,-5.710000,29.75
0.105977,0.273000,-0.096000,-0.933000,48.046000,-33.908000,-15.298000,29.75
0.106403,0.091000,0.240000,-1.129000,57.664000,-38.809000,-37.496000,29.71
0.106846,0.233000,-0.068000,-0.952000,67.756000,-41.603000,-59.069000,29.75
0.107332,0.312000,-0.102000,-0.867000,73.115000,-52.458000,-77.817000,29.75
0.107772,0.384000,-0.190000,-0.821000,75.328000,-57.710000,-92.901000,29.75
0.108208,0.402000,-0.154000,-0.768000,68.168000,-56.000000,-110.748000,29.61
0.108638,0.381000,0.004000,-0.719000,56.687000,-59.847000,-133.893000,29.71
0.109067,0.402000,0.126000,-0.849000,52.092000,-63.069000,-161.374000,29.66
0.109493,0.578000,0.161000,-1.017000,60.229000,-61.176000,-187.359000,29.75
0.109925,0.664000,0.240000,-0.995000,72.305000,-69.053000,-211.053000,29.71
0.110371,0.742000,0.277000,-0.864000,87.313000,-80.000000,-234.412000,29.80
0.110826,0.821000,0.275000,-0.760000,99.023000,-86.672000,-254.641000,29.61
0.111275,0.905000,0.120000,-0.655000,104.550000,-88.733000,-267.206000,29.66
0.111709,0.999000,-0.038000,-0.559000,104.198000,-85.344000,-269.985000,29.75
0.112150,1.037000,-0.146000,-0.470000,102.229000,-70.687000,-265.939000,29.71
0.112585,1.002000,-0.363000,-0.417000,81.725000,-65.069000,-253.359000,29.80
0.113021,0.985000,-0.286000,-0.560000,63.191000,-56.198000,-240.504000,29.75
0.113592,0.875000,-0.143000,-0.635000,57.420000,-41.450000,-231.053000,29.66
0.114171,0.846000,-0.099000,-0.772000,58.214000,-36.855000,-224.504000,29.71
0.114692,0.786000,-0.060000,-0.819000,57.618000,-38.351000,-222.076000,29.61
0.115181,0.743000,-0.060000,-0.857000,53.740000,-45.450000,-222.885000,29.75
0.115638,0.743000,-0.104000,-0.927000,47.847000,-50.733000,-221.542000,29.66
0.116107,0.705000,-0.107000,-0.936000,44.107000,-59.939000,-216.992000,29.61
0.116568,0.650000,-0.105000,-0.883000,43.252000,-64.595000,-211.344000,29.71
0.117011,0.598000,-0.110000,-0.828000,44.366000,-64.183000,-207.557000,29.66
0.117452,0.579000,-0.127000,-0.789000,41.328000,-62.336000,-204.809000,29.66
0.117893,0.545000,-0.173000,-0.775000,37.725000,-59.298000,-202.992000,29.75
0.118328,0.572000,-0.202000,-0.775000,36.473000,-55.954000,-201.328000,29.71
0.118770,0.575000,-0.227000,-0.772000,36.992000,-52.626000,-199.130000,29.66
0.119206,0.555000,-0.293000,-0.756000,36.565000,-53.115000,-195.466000,29.66
0.119640,0.528000,-0.377000,-0.716000,35.863000,-53.603000,-190.947000,29.75
0.120093,0.532000,-0.469000,-0.727000,36.779000,-46.855000,-179.863000,29.71
0.120603,0.451000,-0.693000,-0.776000,66.947000,-46.366000,-159.206000,29.71
0.121100,0.395000,-1.032000,-0.550000,78.779000,-53.618000,-134.504000,29.75
0.121548,0.227000,-1.207000,-0.463000,76.977000,-44.885000,-96.641000,29.66
0.121996,-0.230000,-1.277000,-0.561000,105.786000,-61.435000,-65.954000,29.71
0.122444,-0.451000,-1.645000,-0.503000,106.977000,-76.305000,-8.107000,29.80
0.122882,-0.151000,-0.817000,-0.995000,37.420000,22.733000,30.260000,29.75
0.123342,0.454000,0.348000,-1.597000,18.855000,-76.534000,-7.863000,29.75
0.123891,0.661000,0.360000,-0.917000,-4.916000,96.046000,-3.878000,29.71
0.124541,1.213000,-1.632000,-1.014000,53.939000,29.740000,21.145000,29.71
0.124982,-0.110000,-0.785000,-0.702000,3.481000,8.595000,5.725000,29.61
0.125440,0.093000,-0.003000,-1.115000,11.527000,-28.947000,-10.458000,29.75
0.125878,0.662000,-0.221000,-0.779000,-6.443000,-4.779000,-1.969000,29.66
0.126307,0.337000,-0.179000,-0.813000,-19.328000,12.656000,2.580000,29.71
0.126728,0.394000,-0.199000,-0.933000,-8.779000,0.840000,-0.595000,29.80
0.127146,0.554000,-0.296000,-0.867000,-1.374000,6.779000,-1.588000,29.66
0.127571,0.352000,-0.212000,-0.881000,-2.107000,6.305000,-2.198000,29.75
0.127989,0.310000,-0.137000,-0.924000,0.458000,5.466000,-2.519000,29.80
0.128404,0.349000,-0.056000,-0.972000,4.168000,1.924000,1.359000,29.61
0.128811,0.323000,-0.096000,-0.957000,9.191000,6.198000,4.443000,29.75
0.129230,0.356000,-0.175000,-0.942000,15.557000,10.046000,5.878000,29.66
0.129654,0.422000,-0.224000,-0.927000,18.122000,14.672000,6.992000,29.61
0.130073,0.414000,-0.224000,-0.938000,18.992000,17.511000,7.603000,29.71
0.130507,0.438000,-0.260000,-0.925000,19.481000,16.748000,7.695000,29.66
0.130939,0.436000,-0.314000,-0.885000,17.008000,13.405000,6.824000,29.66
0.131358,0.447000,-0.305000,-0.889000,13.786000,8.977000,5.008000,29.75
0.131810,0.423000,-0.298000,-0.866000,10.153000,4.855000,3.756000,29.71
0.132213,0.407000,-0.265000,-0.872000,6.565000,3.634000,2.183000,29.71
0.132771,0.400000,-0.230000,-0.893000,6.382000,2.916000,1.618000,29.66
0.133355,0.385000,-0.231000,-0.898000,7.374000,1.863000,1.725000,29.75
0.133806,0.388000,-0.221000,-0.916000,8.244000,1.618000,1.649000,29.71
0.134243,0.380000,-0.204000,-0.917000,10.702000,2.046000,2.611000,29.71
0.134683,0.390000,-0.204000,-0.924000,12.794000,3.450000,3.695000,29.75
0.135118,0.384000,-0.226000,-0.908000,15.466000,3.679000,4.427000,29.75
0.135628,0.383000,-0.234000,-0.901000,17.267000,4.366000,4.687000,29.71
0.136068,0.390000,-0.238000,-0.914000,19.099000,5.466000,5.145000,29.71
0.136482,0.390000,-0.298000,-0.897000,18.565000,5.481000,4.519000,29.75
0.136891,0.416000,-0.251000,-0.913000,18.931000,8.672000,5.038000,29.66
0.137305,0.419000,-0.227000,-0.939000,21.878000,10.794000,5.573000,29.71
0.137715,0.402000,-0.215000,-0.930000,25.191000,13.008000,6.840000,29.61
0.138125,0.413000,-0.262000,-0.968000,29.115000,13.802000,7.420000,29.80
0.138544,0.421000,-0.341000,-0.974000,34.672000,12.656000,8.046000,29.66
0.138961,0.432000,-0.328000,-0.928000,38.229000,12.565000,8.198000,29.66
0.139372,0.455000,-0.297000,-0.935000,39.008000,12.198000,8.580000,29.71
0.139789,0.459000,-0.307000,-0.917000,38.901000,12.626000,11.069000,29.75
0.140227,0.429000,-0.327000,-0.883000,37.695000,7.252000,13.069000,29.66
0.140658,0.431000,-0.313000,-0.842000,33.511000,1.191000,14.366000,29.66
0.141111,0.419000,-0.326000,-0.826000,31.847000,-3.710000,15.206000,29.80
0.141564,0.392000,-0.290000,-0.836000,26.443000,-5.206000,15.527000,29.71
0.142105,0.348000,-0.286000,-0.829000,22.748000,-7.053000,14.000000,29.75
0.142707,0.327000,-0.272000,-0.844000,19.298000,-9.023000,11.221000,29.66
0.143172,0.342000,-0.203000,-0.866000,15.145000,-9.221000,5.969000,29.71
0.143621,0.348000,-0.169000,-0.926000,10.748000,-11.649000,-1.786000,29.71
0.144069,0.309000,0.023000,-0.950000,9.237000,-16.748000,-18.611000,29.75
0.144512,0.186000,0.373000,-1.100000,6.534000,-29.053000,-54.275000,29.66
0.144958,0.273000,0.522000,-1.220000,12.275000,-44.046000,-89.985000,29.80
0.145452,0.274000,0.641000,-1.191000,23.695000,-63.542000,-131.786000,29.71
0.145967,0.359000,0.642000,-1.143000,32.840000,-79.344000,-170.595000,29.71
0.146428,0.445000,0.660000,-1.050000,41.573000,-90.794000,-208.656000,29.66
0.146873,0.540000,0.563000,-1.051000,46.565000,-98.718000,-244.443000,29.66
0.147326,0.741000,0.318000,-1.073000,46.397000,-107.069000,-269.496000,29.61
0.147787,0.807000,0.192000,-0.969000,53.969000,-117.527000,-285.511000,29.61
0.148241,0.826000,0.013000,-0.841000,61.405000,-120.397000,-291.771000,29.66
0.148729,0.799000,-0.069000,-0.694000,64.656000,-118.809000,-295.740000,29.75
0.149238,0.756000,0.013000,-0.629000,71.221000,-108.748000,-301.863000,29.61
0.149724,0.744000,0.034000,-0.563000,88.229000,-92.611000,-311.374000,29.66
0.150184,0.776000,0.153000,-0.583000,114.672000,-78.427000,-330.809000,29.75
0.150628,0.876000,-0.299000,-0.467000,150.870000,-59.939000,-333.664000,29.57
0.151063,1.040000,-0.507000,-0.437000,123.115000,-66.687000,-333.252000,29.61
0.151505,0.924000,-0.479000,-0.323000,82.550000,-61.466000,-330.885000,29.71
0.151939,0.900000,-0.279000,-0.466000,66.092000,-61.802000,-322.687000,29.75
0.152372,0.833000,-0.201000,-0.460000,69.863000,-45.802000,-312.214000,29.66
0.152807,0.908000,-0.282000,-0.588000,82.977000,-23.313000,-299.588000,29.80
0.153231,0.964000,-0.417000,-0.633000,97.740000,-11.573000,-283.237000,29.61
0.153660,0.963000,-0.581000,-0.645000,108.122000,-11.908000,-263.053000,29.57
0.154090,0.880000,-0.701000,-0.615000,106.962000,-20.321000,-238.534000,29.66
0.154520,0.777000,-0.751000,-0.550000,105.450000,-24.137000,-212.336000,29.66
0.154949,0.951000,-1.728000,-1.266000,96.534000,-77.893000,-154.687000,29.71
0.155483,0.642000,-1.970000,-1.088000,99.237000,-67.435000,-77.038000,29.61
0.156088,-0.087000,-1.630000,-0.770000,86.901000,-124.748000,-15.634000,29.75
0.156608,-0.288000,-1.486000,-0.551000,49.786000,-100.137000,28.962000,29.66
0.157142,-0.276000,-0.423000,-0.348000,34.885000,-80.855000,16.336000,29.61
0.157644,-0.089000,0.391000,-1.065000,14.595000,0.885000,-4.092000,29.71
0.158097,0.581000,-0.238000,-1.251000,5.359000,65.832000,-11.756000,29.66
0.158547,0.676000,-0.534000,-1.104000,26.824000,27.679000,3.053000,29.57
0.158994,0.238000,-0.331000,-0.689000,34.290000,12.901000,6.992000,29.71
0.159437,0.233000,-0.220000,-0.951000,40.779000,27.985000,0.183000,29.85
0.159886,0.405000,-0.148000,-0.967000,40.565000,24.061000,2.626000,29.66
0.160393,0.441000,-0.204000,-0.760000,41.511000,16.229000,6.855000,29.57
0.160875,0.448000,-0.323000,-0.830000,32.962000,13.389000,10.458000,29.71
0.161318,0.310000,-0.357000,-0.757000,31.221000,6.550000,7.939000,29.71
0.161752,0.316000,-0.385000,-0.781000,24.580000,9.939000,3.053000,29.75
0.162190,0.391000,-0.319000,-0.891000,20.153000,7.618000,3.252000,29.66
0.162640,0.432000,-0.289000,-1.025000,21.893000,13.115000,5.130000,29.66
0.163088,0.447000,-0.266000,-1.059000,31.008000,17.344000,9.053000,29.61
0.163531,0.427000,-0.307000,-0.961000,38.427000,12.870000,11.908000,29.61
0.163974,0.395000,-0.366000,-0.869000,39.389000,11.618000,12.550000,29.75
0.164418,0.370000,-0.372000,-0.841000,36.641000,10.015000,11.725000,29.57
0.164865,0.363000,-0.374000,-0.820000,32.076000,12.031000,10.656000,29.61
0.165334,0.385000,-0.410000,-0.827000,27.985000,15.771000,9.221000,29.61
0.165809,0.370000,-0.423000,-0.815000,24.321000,15.282000,7.771000,29.66
0.166237,0.372000,-0.427000,-0.783000,19.908000,11.053000,6.122000,29.66
0.166660,0.369000,-0.414000,-0.777000,14.153000,9.389000,5.008000,29.71
0.167071,0.345000,-0.405000,-0.757000,6.458000,8.550000,2.840000,29.71
0.167485,0.354000,-0.445000,-0.728000,-2.031000,8.397000,0.489000,29.75
0.167914,0.373000,-0.441000,-0.742000,-9.786000,7.695000,-1.511000,29.66
0.168338,0.362000,-0.415000,-0.776000,-15.817000,7.832000,-3.267000,29.71
0.168779,0.373000,-0.399000,-0.794000,-20.534000,6.336000,-4.595000,29.71
0.169210,0.372000,-0.384000,-0.783000,-24.000000,4.763000,-5.053000,29.75
0.169636,0.357000,-0.363000,-0.775000,-28.260000,2.504000,-5.786000,29.66
0.170174,0.381000,-0.360000,-0.821000,-32.794000,1.542000,-6.641000,29.71
0.170840,0.438000,-0.373000,-0.916000,-31.221000,4.153000,-6.718000,29.71
0.171341,0.419000,-0.321000,-0.917000,-24.107000,2.534000,-5.481000,29.57
0.171786,0.391000,-0.298000,-0.854000,-19.664000,0.580000,-4.443000,29.57
0.174010,0.355000,-0.332000,-0.857000,-18.000000,0.427000,-3.603000,29.66
0.179998,0.378000,-0.325000,-0.847000,-16.412000,-2.962000,-3.802000,29.71
0.183153,0.376000,-0.321000,-0.858000,-17.969000,1.527000,-3.328000,29.61
0.184177,0.351000,-0.320000,-0.844000,-16.168000,3.771000,-3.420000,29.66
0.185329,0.370000,-0.353000,-0.824000,-17.267000,5.618000,-4.214000,29.66
0.185897,0.385000,-0.356000,-0.834000,-17.924000,6.015000,-4.443000,29.71
0.186366,0.391000,-0.338000,-0.860000,-17.634000,6.382000,-4.443000,29.71
0.186827,0.406000,-0.334000,-0.849000,-17.313000,6.397000,-4.412000,29.66
0.187281,0.408000,-0.328000,-0.883000,-16.229000,5.847000,-3.985000,29.66
0.187744,0.420000,-0.323000,-0.894000,-13.160000,5.466000,-3.298000,29.71
0.188193,0.406000,-0.321000,-0.889000,-10.260000,5.053000,-2.855000,29.71
0.188643,0.408000,-0.325000,-0.880000,-8.565000,5.695000,-2.366000,29.66
0.189098,0.397000,-0.310000,-0.884000,-7.053000,6.076000,-1.863000,29.66
0.189797,0.393000,-0.314000,-0.881000,-5.954000,6.031000,-2.137000,29.66
0.191066,0.384000,-0.329000,-0.845000,-5.985000,6.748000,-2.214000,29.71
0.197352,0.391000,-0.324000,-0.858000,-7.313000,7.221000,-2.733000,29.61
0.198099,0.408000,-0.321000,-0.865000,-7.191000,7.725000,-2.580000,29.57
0.199875,0.404000,-0.319000,-0.863000,-6.641000,7.221000,-2.687000,29.66
0.200635,0.402000,-0.331000,-0.857000,-6.916000,6.824000,-3.008000,29.71
0.202378,0.404000,-0.323000,-0.872000,-8.137000,6.840000,-3.282000,29.66
0.203019,0.411000,-0.344000,-0.862000,-10.504000,6.504000,-4.397000,29.75
0.205259,0.409000,-0.357000,-0.839000,-13.130000,5.008000,-5.847000,29.57
0.206205,0.405000,-0.382000,-0.819000,-18.366000,8.321000,-8.656000,29.71
0.206724,0.414000,-0.387000,-0.817000,-21.191000,4.947000,-11.725000,29.71
0.207189,0.405000,-0.375000,-0.813000,-26.168000,5.160000,-14.305000,29.66
0.207649,0.406000,-0.365000,-0.822000,-29.496000,6.107000,-16.809000,29.66
0.208109,0.428000,-0.394000,-0.840000,-31.634000,-0.321000,-18.702000,29.61
0.208555,0.419000,-0.392000,-0.838000,-36.290000,0.534000,-20.336000,29.80
0.209013,0.417000,-0.359000,-0.864000,-38.916000,-1.221000,-21.374000,29.75
0.209476,0.411000,-0.334000,-0.910000,-39.679000,-1.802000,-21.496000,29.66
0.209923,0.353000,-0.293000,-0.918000,-39.267000,0.794000,-21.420000,29.61
0.210379,0.359000,-0.242000,-0.949000,-35.237000,3.221000,-23.160000,29.71
0.210822,0.282000,-0.308000,-0.867000,-29.954000,9.511000,-20.305000,29.75
0.211278,0.390000,-0.199000,-0.909000,-25.267000,22.076000,-25.053000,29.66
0.211810,0.171000,0.040000,-1.015000,-25.191000,21.969000,-47.328000,29.71
0.212274,0.443000,-0.677000,-0.823000,3.313000,36.153000,-69.359000,29.71
0.213891,0.229000,-0.163000,-0.791000,11.191000,28.397000,-80.244000,29.75
0.215059,0.283000,-0.019000,-1.262000,24.656000,38.031000,-103.924000,29.66
0.217880,0.173000,-0.068000,-1.110000,45.740000,32.473000,-125.115000,29.75
0.218551,0.250000,-0.339000,-1.046000,65.939000,24.107000,-142.122000,29.71
0.219644,0.409000,-0.472000,-1.112000,69.267000,12.214000,-152.855000,29.75
0.220243,0.338000,-0.571000,-0.959000,64.519000,-5.664000,-152.641000,29.66
0.220777,0.344000,-0.815000,-1.016000,68.794000,-11.557000,-142.092000,29.66
0.221251,0.664000,-1.089000,-0.976000,56.916000,-31.924000,-128.031000,29.71
0.221718,0.284000,-0.953000,-0.857000,42.580000,-57.221000,-107.115000,29.71
0.222248,0.125000,-0.590000,-0.759000,48.183000,-58.855000,-99.908000,29.66
0.222796,0.036000,-0.459000,-0.759000,65.313000,-60.183000,-95.740000,29.66
0.223269,0.082000,-0.494000,-0.794000,74.336000,-55.847000,-93.145000,29.71
0.223840,0.081000,-0.453000,-0.810000,78.443000,-57.664000,-88.198000,29.71
0.224343,0.064000,-0.347000,-0.802000,81.481000,-57.618000,-83.435000,29.66
0.224805,0.059000,-0.245000,-0.819000,85.924000,-60.290000,-80.427000,29.66
0.225243,0.102000,-0.183000,-0.811000,86.947000,-63.908000,-77.069000,29.71
0.225680,0.176000,-0.192000,-0.811000,83.710000,-64.382000,-72.427000,29.71
0.226113,0.264000,-0.224000,-0.858000,80.382000,-63.496000,-65.496000,29.66
0.226542,0.311000,-0.235000,-0.890000,79.573000,-61.695000,-55.252000,29.57
0.226977,0.366000,-0.228000,-0.879000,79.740000,-60.443000,-43.053000,29.75
0.227409,0.385000,-0.233000,-0.830000,79.191000,-59.924000,-30.076000,29.61
0.227841,0.394000,-0.198000,-0.767000,77.435000,-55.420000,-18.107000,29.71
0.228270,0.411000,-0.146000,-0.754000,75.740000,-46.779000,-8.076000,29.66
0.228700,0.407000,-0.096000,-0.707000,73.527000,-38.031000,0.855000,29.66
0.229141,1.766000,-1.566000,0.601000,-14.046000,12.305000,9.466000,29.71
0.229589,0.618000,1.073000,0.637000,-107.924000,-16.305000,-26.656000,29.66
0.230122,2.385000,2.510000,-0.211000,-117.588000,22.061000,-60.565000,29.66
0.230673,0.677000,2.022000,-1.552000,-156.046000,88.626000,-48.275000,29.75
0.231157,1.597000,-0.113000,-3.655000,-48.947000,-2.962000,-17.573000,29.71
0.231619,0.241000,-0.354000,-1.420000,19.832000,-26.382000,11.191000,29.71
0.232070,0.132000,-0.858000,-0.054000,58.260000,-101.282000,8.076000,29.66
0.232561,0.505000,-0.961000,-0.898000,31.420000,-113.221000,1.847000,29.66
0.233029,0.266000,-0.042000,-0.896000,-19.634000,-6.916000,-6.397000,29.61
0.233472,0.309000,0.103000,-1.027000,-16.214000,-10.626000,-6.779000,29.71
0.233903,0.434000,-0.096000,-0.964000,-16.427000,23.725000,-3.450000,29.71
0.234345,0.353000,-0.247000,-0.917000,-4.061000,33.099000,-5.939000,29.66
0.234774,0.419000,-0.354000,-0.989000,-1.313000,24.733000,-4.748000,29.66
0.235191,0.427000,-0.301000,-0.872000,3.802000,4.565000,-4.076000,29.61
0.235610,0.407000,-0.224000,-0.917000,3.496000,-2.916000,-1.664000,29.61
0.236025,0.361000,-0.202000,-0.924000,-0.931000,2.733000,0.046000,29.66
0.236437,0.331000,-0.235000,-0.905000,-2.031000,4.519000,0.183000,29.66
0.236893,0.356000,-0.266000,-0.940000,-1.435000,-0.046000,0.290000,29.71
0.237317,0.358000,-0.250000,-0.900000,2.214000,3.725000,-0.626000,29.71
0.237739,0.353000,-0.244000,-0.883000,-0.260000,8.687000,-0.901000,29.57
0.238163,0.338000,-0.260000,-0.854000,-3.511000,13.389000,-1.969000,29.66
0.238589,0.380000,-0.284000,-0.869000,-5.481000,10.901000,-2.702000,29.71
0.239013,0.384000,-0.282000,-0.885000,-7.389000,8.779000,-3.802000,29.61
0.239455,0.386000,-0.278000,-0.888000,-10.672000,5.649000,-4.504000,29.71
0.239931,0.406000,-0.264000,-0.888000,-13.389000,6.412000,-5.191000,29.75
0.240538,0.417000,-0.240000,-0.915000,-13.817000,6.672000,-4.962000,29.66
0.241035,0.391000,-0.215000,-0.927000,-12.015000,5.527000,-4.137000,29.61
0.241497,0.385000,-0.240000,-0.922000,-11.450000,5.298000,-3.053000,29.66
0.241922,0.401000,-0.250000,-0.912000,-11.374000,5.282000,-2.702000,29.57
0.242343,0.385000,-0.232000,-0.925000,-9.130000,4.641000,-3.023000,29.66
0.242771,0.393000,-0.228000,-0.863000,-11.023000,6.336000,-2.595000,29.61
0.243192,0.400000,-0.225000,-0.899000,-7.863000,2.198000,-2.366000,29.71
0.243621,0.387000,-0.226000,-0.894000,-7.130000,3.115000,-2.382000,29.66
0.244039,0.366000,-0.226000,-0.904000,-7.969000,2.611000,-2.489000,29.66
0.244552,0.415000,-0.237000,-0.912000,-7.786000,-0.092000,-1.618000,29.61
0.245113,0.385000,-0.200000,-0.896000,-5.817000,0.366000,-1.725000,29.71
0.245571,0.402000,-0.210000,-0.911000,-3.588000,1.206000,-1.221000,29.75
0.246012,0.373000,-0.213000,-0.902000,-2.473000,1.588000,-0.763000,29.66
0.246457,0.381000,-0.218000,-0.891000,-2.336000,2.656000,-0.870000,29.57
0.246898,0.378000,-0.201000,-0.898000,-2.000000,3.664000,-0.595000,29.61
0.247344,0.384000,-0.200000,-0.902000,-0.534000,3.893000,-0.031000,29.71
0.247770,0.373000,-0.213000,-0.902000,1.313000,3.802000,0.168000,29.66
0.248206,0.376000,-0.215000,-0.897000,1.740000,4.504000,0.473000,29.66
0.248641,0.374000,-0.209000,-0.907000,2.458000,4.473000,0.580000,29.71
0.249084,0.380000,-0.220000,-0.895000,2.641000,4.794000,0.885000,29.61
0.249537,0.374000,-0.222000,-0.889000,2.733000,5.038000,0.779000,29.66
0.250018,0.371000,-0.222000,-0.894000,2.473000,5.466000,0.702000,29.66
0.250528,0.379000,-0.243000,-0.909000,1.710000,5.511000,0.427000,29.61
0.250988,0.383000,-0.277000,-0.887000,-0.885000,5.359000,-0.595000,29.80
0.251428,0.380000,-0.279000,-0.863000,-5.176000,5.038000,-2.489000,29.66
0.251880,0.389000,-0.250000,-0.880000,-8.092000,4.565000,-4.015000,29.66
0.252323,0.394000,-0.229000,-0.884000,-9.191000,3.511000,-4.366000,29.80
0.252772,0.391000,-0.233000,-0.876000,-9.664000,1.756000,-4.489000,29.71
0.253223,0.384000,-0.239000,-0.893000,-10.244000,0.962000,-4.794000,29.75
0.253678,0.382000,-0.237000,-0.897000,-11.313000,0.687000,-5.252000,29.57
0.254128,0.385000,-0.230000,-0.894000,-11.756000,1.359000,-5.588000,29.61
0.254649,0.387000,-0.205000,-0.911000,-11.664000,2.534000,-5.405000,29.71
0.255150,0.396000,-0.198000,-0.906000,-11.252000,5.145000,-5.069000,29.71
0.255608,0.400000,-0.204000,-0.921000,-8.595000,4.183000,-4.321000,29.66
0.256064,0.410000,-0.218000,-0.912000,-5.450000,4.076000,-4.092000,29.66
0.256509,0.413000,-0.218000,-0.918000,-3.328000,4.748000,-3.328000,29.61
0.256956,0.436000,-0.215000,-0.937000,-0.977000,5.450000,-2.427000,29.71
0.257415,0.450000,-0.227000,-0.932000,1.359000,7.802000,-1.008000,29.57
0.257893,0.454000,-0.281000,-0.929000,1.588000,4.015000,0.794000,29.66
0.258325,0.422000,-0.252000,-0.936000,3.191000,0.794000,2.153000,29.71
0.258745,0.394000,-0.260000,-0.911000,4.198000,0.885000,2.626000,29.61
0.259180,0.358000,-0.247000,-0.907000,5.130000,-1.786000,3.328000,29.57
0.259610,0.293000,-0.254000,-0.900000,1.603000,4.718000,2.061000,29.66
0.260082,0.299000,-0.295000,-0.917000,-0.931000,4.931000,-1.435000,29.61
0.260597,0.315000,-0.307000,-0.943000,-4.534000,10.595000,-7.756000,29.57
0.261050,0.270000,-0.257000,-0.841000,-7.863000,18.305000,-10.794000,29.66
0.261507,0.347000,-0.378000,-0.909000,-9.863000,20.351000,-16.489000,29.57
0.261958,-0.286000,0.616000,-1.214000,-6.092000,20.397000,-51.786000,29.61
0.262454,0.397000,0.062000,-1.268000,-0.076000,25.756000,-64.947000,29.61
0.262894,0.270000,-0.066000,-0.954000,27.664000,18.061000,-79.832000,29.66
0.263338,0.485000,-0.443000,-1.055000,32.244000,-2.275000,-76.901000,29.66
0.263777,0.573000,-0.986000,-0.910000,33.450000,5.939000,-51.634000,29.71
0.264286,0.580000,-1.077000,-0.822000,21.969000,-34.122000,-23.389000,29.71
0.264774,0.232000,-0.801000,-0.733000,4.137000,-33.206000,-1.191000,29.61
0.265225,0.156000,-0.510000,-0.698000,14.916000,-32.687000,8.901000,29.66
0.265697,0.136000,-0.519000,-0.711000,17.069000,-24.931000,13.679000,29.66
0.266151,0.159000,-0.537000,-0.721000,13.359000,-20.183000,18.336000,29.61
0.266579,0.110000,-0.469000,-0.670000,7.221000,-16.580000,22.809000,29.71
0.266996,0.072000,-0.385000,-0.635000,9.252000,-17.573000,26.031000,29.66
0.267421,0.109000,-0.350000,-0.699000,12.611000,-24.779000,29.557000,29.66
0.267843,0.149000,-0.323000,-0.685000,14.458000,-12.855000,30.122000,29.61
0.268264,0.185000,-0.310000,-0.708000,21.221000,-13.389000,29.832000,29.61
0.268682,0.151000,-0.261000,-0.673000,22.656000,-7.069000,26.366000,29.66
0.269099,1.125000,-0.257000,-0.506000,5.603000,33.084000,38.366000,29.66
0.269564,1.913000,0.613000,-0.018000,-112.214000,55.298000,23.481000,29.61
0.270106,-0.144000,2.900000,-0.874000,-174.076000,33.267000,-42.412000,29.57
0.270628,0.977000,1.149000,-3.983000,-76.977000,72.962000,-35.298000,29.57
0.271071,0.387000,-0.226000,-0.724000,-11.405000,-49.313000,3.527000,29.57
0.271512,0.434000,-1.154000,-0.102000,27.435000,-47.252000,7.420000,29.71
0.271962,0.500000,-0.454000,-1.483000,31.573000,-120.824000,6.916000,29.71
0.272411,0.099000,0.241000,-0.794000,11.221000,-9.206000,-7.344000,29.66
0.272836,0.527000,-0.370000,-0.906000,11.038000,2.244000,2.458000,29.66
0.273271,0.387000,-0.278000,-0.781000,-4.626000,40.458000,0.229000,29.66
0.273757,0.366000,-0.224000,-1.023000,-8.458000,53.786000,-2.977000,29.61
0.274291,0.420000,-0.283000,-0.866000,-7.374000,25.069000,-0.840000,29.71
0.274734,0.480000,-0.277000,-0.909000,0.489000,5.695000,1.344000,29.66
0.275159,0.418000,-0.197000,-0.901000,6.656000,-0.977000,2.641000,29.66
0.275589,0.382000,-0.210000,-0.905000,8.260000,-5.084000,3.328000,29.71
0.276022,0.375000,-0.226000,-0.890000,4.443000,0.977000,2.916000,29.71
0.276435,0.372000,-0.235000,-0.879000,0.702000,6.809000,2.076000,29.66
0.276845,0.373000,-0.238000,-0.880000,-1.252000,3.588000,1.252000,29.66
0.277258,0.354000,-0.202000,-0.904000,-2.183000,1.023000,1.053000,29.71
0.277686,0.343000,-0.171000,-0.924000,-1.695000,1.664000,1.069000,29.71
0.278103,0.349000,-0.166000,-0.921000,0.122000,2.809000,1.542000,29.66
0.278513,0.352000,-0.165000,-0.911000,2.656000,4.336000,1.618000,29.66
0.278918,0.350000,-0.194000,-0.906000,4.931000,5.023000,1.878000,29.61
0.279338,0.346000,-0.215000,-0.898000,4.870000,5.985000,1.435000,29.61
0.279752,0.340000,-0.227000,-0.885000,2.550000,6.992000,0.519000,29.75
0.280261,0.353000,-0.239000,-0.892000,-0.870000,7.573000,-0.504000,29.66
0.280802,0.375000,-0.244000,-0.882000,-3.252000,5.374000,-1.344000,29.57
0.281249,0.380000,-0.263000,-0.871000,-5.282000,3.420000,-2.656000,29.71
0.281678,0.384000,-0.254000,-0.881000,-7.542000,3.405000,-3.771000,29.66
0.282125,0.389000,-0.223000,-0.885000,-10.290000,2.809000,-4.443000,29.75
0.282596,0.382000,-0.214000,-0.892000,-10.489000,1.695000,-4.534000,29.66
0.283033,0.348000,-0.214000,-0.909000,-11.405000,0.183000,-4.824000,29.61
0.283446,0.353000,-0.198000,-0.905000,-11.053000,1.038000,-5.664000,29.61
0.283867,0.350000,-0.189000,-0.901000,-10.275000,2.061000,-6.153000,29.75
0.284298,0.359000,-0.181000,-0.911000,-9.634000,3.527000,-6.107000,29.66
0.284724,0.376000,-0.158000,-0.926000,-8.260000,3.420000,-4.992000,29.61
0.285136,0.382000,-0.162000,-0.928000,-5.802000,4.107000,-3.756000,29.71
0.285571,0.365000,-0.161000,-0.901000,-3.496000,3.893000,-2.656000,29.66
0.285992,0.368000,-0.194000,-0.916000,-2.534000,3.527000,-2.290000,29.66
0.286407,0.383000,-0.192000,-0.899000,-2.687000,4.305000,-2.031000,29.61
0.286816,0.377000,-0.205000,-0.896000,-3.328000,2.748000,-2.107000,29.71
0.287258,0.372000,-0.212000,-0.902000,-4.427000,2.504000,-2.580000,29.66
0.287676,0.381000,-0.204000,-0.898000,-5.405000,2.534000,-2.718000,29.66
0.288097,0.375000,-0.194000,-0.901000,-5.893000,2.198000,-2.885000,29.71
0.288543,0.368000,-0.194000,-0.903000,-6.076000,2.031000,-3.008000,29.57
0.289304,0.353000,-0.196000,-0.903000,-6.397000,1.786000,-3.557000,29.66
0.289750,0.356000,-0.198000,-0.902000,-7.130000,1.954000,-3.954000,29.66
0.290174,0.352000,-0.196000,-0.904000,-7.954000,3.053000,-4.702000,29.61
0.290615,0.356000,-0.194000,-0.907000,-8.427000,4.504000,-5.313000,29.61
0.291037,0.372000,-0.188000,-0.910000,-8.473000,5.145000,-5.466000,29.66
0.291455,0.388000,-0.167000,-0.928000,-7.298000,6.000000,-5.191000,29.66
0.291872,0.413000,-0.145000,-0.948000,-4.168000,7.542000,-4.244000,29.61
0.292286,0.447000,-0.116000,-0.951000,2.595000,9.267000,-1.084000,29.71
0.292708,0.461000,-0.071000,-0.965000,14.275000,11.389000,3.924000,29.66
0.293127,0.388000,-0.123000,-0.917000,26.565000,7.618000,7.527000,29.66
0.293541,0.330000,-0.240000,-0.863000,26.092000,4.779000,6.305000,29.57
0.293954,0.348000,-0.242000,-0.861000,18.702000,3.603000,3.924000,29.71
0.294371,0.361000,-0.237000,-0.863000,12.397000,6.321000,1.847000,29.71
0.294810,0.344000,-0.224000,-0.871000,7.008000,6.290000,0.290000,29.66
0.295224,0.337000,-0.251000,-0.867000,0.947000,3.756000,-1.130000,29.66
0.295643,0.346000,-0.251000,-0.877000,-4.977000,1.466000,-2.779000,29.61
0.296057,0.348000,-0.237000,-0.879000,-8.656000,0.489000,-4.351000,29.71
0.296483,0.339000,-0.220000,-0.898000,-12.153000,2.137000,-5.908000,29.66
0.296904,0.348000,-0.198000,-0.899000,-14.198000,3.450000,-6.916000,29.66
0.297330,0.339000,-0.200000,-0.880000,-15.252000,3.557000,-7.802000,29.71
0.297751,0.313000,-0.218000,-0.873000,-16.763000,2.962000,-9.573000,29.66
0.298203,0.336000,-0.227000,-0.881000,-21.145000,4.000000,-12.504000,29.66
0.298652,0.358000,-0.213000,-0.901000,-27.298000,7.099000,-14.977000,29.66
0.299182,0.369000,-0.213000,-0.900000,-32.489000,8.427000,-17.130000,29.71
0.299790,0.384000,-0.187000,-0.920000,-31.649000,8.305000,-17.420000,29.71
0.300242,0.415000,-0.163000,-0.945000,-29.191000,9.908000,-16.031000,29.66
0.300690,0.422000,-0.151000,-0.939000,-25.176000,8.626000,-13.664000,29.66
0.301119,0.411000,-0.132000,-0.933000,-21.511000,7.664000,-12.229000,29.61
0.301544,0.389000,-0.147000,-0.903000,-19.603000,9.313000,-10.305000,29.61
0.301957,0.403000,-0.118000,-0.930000,-17.359000,9.374000,-9.603000,29.75
0.302380,0.403000,-0.128000,-0.921000,-14.916000,9.221000,-8.748000,29.66
0.302798,0.425000,-0.102000,-0.927000,-12.443000,9.954000,-7.664000,29.71
0.303218,0.467000,-0.081000,-0.963000,-5.710000,8.244000,-5.496000,29.61
0.303627,0.506000,-0.042000,-0.951000,5.435000,8.305000,-0.641000,29.57
0.304036,0.408000,-0.047000,-0.908000,15.145000,1.740000,3.725000,29.57
0.304473,0.362000,-0.111000,-0.886000,16.901000,-1.786000,4.977000,29.61
0.304904,0.387000,-0.138000,-0.875000,14.183000,-3.435000,5.496000,29.61
0.305334,0.358000,-0.170000,-0.869000,10.718000,-1.237000,4.473000,29.66
0.305750,0.357000,-0.205000,-0.904000,6.534000,2.076000,1.618000,29.57
0.306175,0.370000,-0.236000,-0.886000,1.527000,2.168000,-0.198000,29.71
0.306601,0.379000,-0.192000,-0.891000,-1.954000,2.153000,-1.359000,29.61
0.307043,0.373000,-0.165000,-0.911000,-3.924000,1.893000,-1.740000,29.66
0.307484,0.387000,-0.179000,-0.914000,-4.931000,2.489000,-2.168000,29.66
0.307904,0.394000,-0.155000,-0.920000,-4.366000,2.779000,-1.985000,29.66
0.308324,0.388000,-0.157000,-0.910000,-3.359000,3.481000,-2.015000,29.61
0.308744,0.379000,-0.161000,-0.913000,-4.046000,3.893000,-2.107000,29.61
0.309264,0.357000,-0.174000,-0.892000,-5.924000,3.466000,-3.069000,29.57
0.309840,0.340000,-0.207000,-0.885000,-10.397000,2.565000,-5.115000,29.66
0.310320,0.354000,-0.196000,-0.911000,-16.305000,2.992000,-8.458000,29.61
0.310771,0.387000,-0.206000,-0.923000,-20.672000,3.298000,-10.427000,29.71
0.311214,0.417000,-0.161000,-0.951000,-17.481000,6.687000,-9.985000,29.66
0.311638,0.491000,-0.137000,-0.986000,-8.092000,6.718000,-8.122000,29.57
0.312080,0.469000,-0.100000,-0.942000,1.466000,4.061000,-4.947000,29.71
0.312498,0.427000,-0.090000,-0.909000,9.420000,-3.145000,-2.214000,29.71
0.312915,0.398000,-0.083000,-0.869000,11.511000,-8.275000,0.275000,29.66
0.313339,0.378000,-0.095000,-0.873000,8.260000,-7.985000,0.931000,29.66
0.313756,0.392000,-0.094000,-0.848000,6.916000,-7.405000,1.817000,29.71
0.314173,0.303000,-0.161000,-0.864000,4.351000,-1.969000,-0.061000,29.66
0.314587,0.363000,-0.180000,-0.887000,1.099000,0.718000,-1.695000,29.66
0.314998,0.354000,-0.165000,-0.911000,-2.321000,3.389000,-2.336000,29.66
0.315445,0.353000,-0.157000,-0.901000,-4.656000,4.519000,-2.321000,29.71
0.315879,0.387000,-0.158000,-0.950000,-4.595000,5.603000,-2.229000,29.61
0.316316,0.398000,-0.162000,-0.929000,-3.115000,5.130000,-1.679000,29.57
0.316729,0.394000,-0.135000,-0.910000,-1.649000,3.450000,-0.550000,29.66
0.317146,0.380000,-0.115000,-0.914000,-1.481000,2.397000,0.351000,29.61
0.317557,0.325000,-0.153000,-0.861000,-2.229000,1.160000,0.183000,29.61
0.317976,0.307000,-0.210000,-0.926000,-8.000000,0.244000,-3.557000,29.66
0.318393,0.363000,-0.227000,-0.921000,-16.397000,2.763000,-7.069000,29.57
0.318822,0.328000,-0.277000,-0.901000,-23.115000,4.397000,-11.405000,29.61
0.319355,0.357000,-0.301000,-0.930000,-31.664000,5.924000,-14.397000,29.61
0.319956,0.301000,-0.188000,-0.951000,-38.580000,6.809000,-18.458000,29.57
0.320487,0.416000,-0.303000,-0.918000,-41.954000,11.053000,-20.840000,29.57
0.320993,0.321000,-0.236000,-0.807000,-43.832000,16.000000,-22.962000,29.61
0.321466,0.350000,-0.083000,-0.930000,-42.947000,9.053000,-28.000000,29.61
0.321942,0.431000,-0.217000,-0.851000,-47.053000,18.427000,-28.718000,29.61
0.322394,0.391000,0.027000,-0.933000,-39.908000,12.580000,-26.198000,29.66
0.322839,0.411000,-0.009000,-0.941000,-38.122000,12.870000,-22.733000,29.57
0.323290,0.402000,0.009000,-0.934000,-33.359000,13.847000,-20.183000,29.71
0.323748,0.391000,0.011000,-0.934000,-31.191000,14.595000,-16.702000,29.66
0.324188,0.410000,-0.045000,-0.936000,-30.458000,16.702000,-13.802000,29.66
0.324622,0.425000,0.016000,-0.911000,-32.214000,18.153000,-10.046000,29.66
0.325050,0.408000,0.026000,-0.914000,-27.313000,19.252000,-8.580000,29.61
0.325494,0.421000,-0.020000,-0.893000,-26.611000,17.588000,-6.382000,29.71
0.325929,0.403000,0.010000,-0.867000,-22.366000,17.847000,-6.275000,29.66
0.326357,0.402000,-0.004000,-0.874000,-20.076000,17.832000,-6.229000,29.66
0.326780,0.401000,-0.011000,-0.912000,-17.298000,18.656000,-6.550000,29.61
0.327204,0.448000,-0.035000,-0.888000,-15.679000,19.542000,-5.832000,29.61
0.327628,0.437000,-0.009000,-0.872000,-13.008000,18.153000,-5.649000,29.66
0.328049,0.440000,0.004000,-0.846000,-8.504000,16.641000,-5.466000,29.57
0.328463,0.426000,0.024000,-0.858000,-4.214000,16.947000,-4.489000,29.71
0.328881,0.446000,0.041000,-0.837000,2.809000,15.679000,-2.641000,29.61
0.329392,0.439000,0.090000,-0.834000,13.618000,12.580000,-0.580000,29.66
0.329951,0.473000,0.112000,-0.818000,26.168000,8.321000,2.931000,29.66
0.330445,0.486000,0.111000,-0.740000,42.275000,3.710000,9.710000,29.57
0.330915,0.492000,0.142000,-0.727000,66.427000,-0.824000,17.252000,29.61
0.331395,0.547000,0.133000,-0.781000,91.603000,-1.176000,26.382000,29.61
0.331969,0.614000,0.073000,-0.853000,105.557000,-5.802000,33.450000,29.57
0.332443,0.640000,0.078000,-1.065000,115.405000,-11.802000,39.511000,29.66
0.332874,0.630000,0.000000,-0.993000,119.282000,-29.710000,50.137000,29.71
0.333306,0.308000,0.018000,-1.051000,118.763000,-28.595000,58.565000,29.66
0.333739,0.308000,-0.117000,-1.157000,108.687000,-37.893000,52.718000,29.57
0.334170,0.512000,-0.497000,-0.990000,100.595000,-17.038000,41.664000,29.66
0.334588,0.307000,-0.597000,-0.821000,85.053000,4.534000,32.275000,29.61
0.335014,0.193000,-0.705000,-0.794000,56.137000,22.794000,17.649000,29.61
0.335461,0.026000,-0.773000,-0.845000,31.145000,46.641000,-2.519000,29.66
0.335901,0.012000,-0.823000,-0.811000,14.702000,69.649000,-21.924000,29.66
0.336324,0.042000,-0.829000,-0.883000,9.221000,99.099000,-51.985000,29.61
0.336785,0.156000,-0.920000,-1.329000,6.198000,161.817000,-81.191000,29.61
0.337231,-0.207000,-0.452000,-1.624000,23.405000,181.588000,-133.695000,29.66
0.337660,0.122000,-0.684000,-3.079000,42.550000,120.779000,-189.099000,29.66
0.338085,0.178000,-3.277000,-2.437000,56.992000,43.878000,-86.153000,29.71
0.338514,-0.525000,-2.975000,-1.120000,8.122000,-63.985000,-32.656000,29.61
0.338936,-1.603000,-1.427000,-0.165000,9.863000,-59.557000,8.198000,29.66
0.339362,-1.067000,-1.037000,-1.034000,71.802000,-67.313000,4.763000,29.57
0.339783,-1.117000,-1.350000,-0.386000,50.336000,16.687000,1.679000,29.66
0.340227,-1.149000,-1.026000,-0.567000,51.084000,-25.679000,10.275000,29.61
0.340671,-1.067000,-0.552000,-0.710000,45.603000,-38.962000,11.023000,29.61
0.341128,-0.801000,-0.517000,-0.987000,48.046000,-55.557000,12.641000,29.66
0.343969,-0.517000,-0.553000,-1.092000,34.183000,-80.550000,27.176000,29.57
0.353917,-0.282000,-0.560000,-1.299000,27.527000,-96.794000,43.527000,29.61
0.363915,0.010000,-0.450000,-1.467000,37.344000,-104.031000,67.282000,29.57
0.373980,0.140000,-0.341000,-1.277000,46.305000,-102.794000,90.443000,29.66
0.384030,0.251000,-0.249000,-1.097000,41.176000,-102.473000,109.481000,29.57
0.393998,0.354000,-0.164000,-1.037000,34.153000,-110.366000,120.015000,29.61
0.403979,0.423000,-0.088000,-0.996000,17.008000,-98.595000,124.305000,29.52
0.414026,0.521000,-0.082000,-0.902000,2.031000,-82.855000,124.031000,29.57
0.424167,0.719000,-0.100000,-1.022000,-2.779000,-74.153000,124.046000,29.57
0.434056,0.813000,-0.096000,-0.993000,-6.931000,-72.183000,128.015000,29.61
0.444102,0.776000,-0.054000,-0.872000,-5.740000,-68.855000,127.298000,29.61
0.454083,0.807000,0.021000,-0.930000,1.557000,-59.420000,121.191000,29.57
0.464165,0.801000,0.043000,-0.876000,7.924000,-48.931000,111.969000,29.57
0.474173,0.830000,0.049000,-0.902000,8.733000,-41.191000,97.771000,29.71
0.484188,0.883000,0.053000,-0.990000,7.603000,-39.511000,79.832000,29.61
0.494158,0.905000,0.132000,-1.021000,8.870000,-45.130000,62.214000,29.66
0.504244,0.873000,0.189000,-0.928000,14.992000,-51.939000,43.908000,29.57
0.514106,0.849000,0.219000,-0.789000,20.885000,-54.916000,24.641000,29.61
0.524021,0.860000,0.244000,-0.663000,21.664000,-49.603000,5.481000,29.57
0.534023,0.892000,0.276000,-0.597000,19.603000,-38.198000,-14.076000,29.66
0.544054,1.003000,0.287000,-0.696000,20.702000,-28.366000,-30.183000,29.57
0.554014,1.103000,0.235000,-0.755000,23.603000,-27.985000,-41.328000,29.61
0.564074,1.166000,0.193000,-0.763000,27.099000,-33.191000,-47.130000,29.61
0.574164,1.135000,0.234000,-0.637000,30.168000,-35.740000,-50.687000,29.57
0.584105,1.137000,0.243000,-0.514000,28.244000,-28.504000,-56.321000,29.47
0.594080,1.183000,0.215000,-0.504000,25.542000,-22.015000,-57.985000,29.61
0.604118,1.230000,0.197000,-0.598000,18.901000,-19.924000,-56.183000,29.61
0.614005,1.216000,0.183000,-0.690000,9.282000,-26.122000,-53.282000,29.57
0.623966,0.283000,0.433000,-0.140000,17.420000,-6.824000,-56.244000,29.66
0.634013,1.144000,0.454000,0.231000,13.649000,5.588000,-66.168000,29.61
0.643987,0.728000,-0.507000,-0.785000,22.763000,92.626000,-53.725000,29.61
0.653961,0.575000,-0.984000,-1.321000,42.718000,19.023000,-10.977000,29.57
0.664030,0.104000,-1.413000,-0.438000,31.145000,-8.855000,-14.061000,29.57
0.674183,-0.365000,-1.367000,0.026000,14.305000,39.557000,-24.519000,29.61
0.684039,0.525000,-1.265000,-0.765000,8.565000,90.595000,-8.626000,29.66
0.694074,0.566000,-0.044000,-1.599000,-17.374000,128.061000,-13.298000,29.66
0.704077,0.177000,0.602000,-1.976000,-14.351000,99.466000,-34.824000,29.66
0.714115,0.073000,0.333000,-1.592000,7.435000,50.336000,-47.969000,29.61
0.724220,0.203000,-0.318000,-0.855000,18.198000,32.168000,-46.046000,29.61
0.734105,0.279000,-0.667000,-0.517000,25.160000,46.977000,-40.046000,29.57
0.744111,0.416000,-0.587000,-0.879000,28.412000,66.198000,-35.618000,29.66
0.754153,0.463000,-0.295000,-1.021000,22.290000,92.565000,-37.450000,29.61
0.764168,0.425000,-0.268000,-1.127000,21.985000,87.649000,-39.267000,29.61
0.774283,0.550000,-0.492000,-1.155000,20.855000,42.779000,-33.176000,29.66
0.784252,0.537000,-0.591000,-0.878000,13.145000,23.969000,-23.939000,29.66
0.794153,0.477000,-0.585000,-0.950000,6.076000,15.084000,-19.435000,29.71
0.804295,0.419000,-0.549000,-0.921000,3.298000,13.221000,-16.534000,29.61
0.814305,0.473000,-0.608000,-0.889000,-3.557000,33.786000,-17.908000,29.57
0.824401,0.462000,-0.611000,-0.760000,-8.183000,23.786000,-14.107000,29.57
0.834397,0.385000,-0.555000,-0.752000,-13.939000,10.153000,-11.481000,29.61
0.844353,0.321000,-0.472000,-0.822000,-21.786000,3.863000,-11.695000,29.71
0.854388,0.295000,-0.456000,-0.799000,-26.885000,8.824000,-13.084000,29.66
0.864308,0.237000,-0.425000,-0.749000,-26.336000,14.901000,-15.542000,29.57
0.874430,0.226000,-0.415000,-0.739000,-28.153000,19.359000,-18.702000,29.52
0.884377,0.224000,-0.395000,-0.722000,-32.718000,24.321000,-20.931000,29.61
0.894323,0.269000,-0.380000,-0.730000,-40.656000,26.427000,-22.244000,29.57
0.904447,0.278000,-0.393000,-0.663000,-52.321000,28.031000,-23.450000,29.66
0.914467,0.317000,-0.473000,-0.624000,-68.489000,26.916000,-24.580000,29.66
0.924349,0.396000,-0.569000,-0.717000,-86.580000,27.725000,-24.641000,29.61
0.934476,0.434000,-0.510000,-0.789000,-95.725000,31.008000,-24.244000,29.61
0.944438,0.384000,-0.431000,-0.927000,-95.664000,32.137000,-26.244000,29.57
0.954383,0.534000,-0.309000,-1.223000,-78.718000,37.405000,-24.275000,29.57
0.964481,0.348000,-0.200000,-0.953000,-61.817000,28.137000,-23.267000,29.61
0.974371,0.321000,-0.378000,-0.838000,-60.168000,11.206000,-25.710000,29.61
0.984347,0.330000,-0.382000,-0.900000,-69.496000,7.405000,-36.947000,29.57
0.994453,0.397000,-0.173000,-0.948000,-62.473000,15.985000,-39.511000,29.66
1.004394,0.494000,-0.267000,-0.927000,-56.733000,28.824000,-38.366000,29.61
1.014178,0.370000,-0.135000,-1.004000,-46.107000,34.214000,-33.389000,29.52
1.024081,0.385000,-0.148000,-0.972000,-41.069000,34.153000,-29.313000,29.57
1.033977,0.360000,-0.215000,-0.889000,-38.214000,29.863000,-26.580000,29.57
1.043980,0.394000,-0.298000,-0.868000,-41.374000,35.435000,-27.802000,29.61
1.053930,0.379000,-0.237000,-0.895000,-40.656000,43.252000,-32.031000,29.61
1.063954,0.483000,-0.315000,-0.899000,-43.206000,56.626000,-33.511000,29.66
1.074058,0.248000,-0.169000,-0.934000,-50.794000,52.641000,-44.092000,29.57
1.083934,0.422000,-0.273000,-0.945000,-50.916000,72.595000,-42.122000,29.52
1.093974,0.456000,-0.307000,-0.878000,-47.985000,100.427000,-42.687000,29.52
1.103975,0.379000,-0.381000,-0.843000,-57.053000,117.145000,-37.679000,29.57
1.113997,0.429000,-0.109000,-0.998000,-68.947000,141.924000,-32.794000,29.57
1.124082,0.351000,0.020000,-0.877000,-73.282000,167.939000,-32.290000,29.57
1.133977,0.354000,-0.072000,-0.902000,-79.618000,193.511000,-33.618000,29.61
1.143945,0.298000,-0.037000,-0.968000,-65.786000,208.550000,-37.802000,29.61
1.154001,0.420000,-0.111000,-0.884000,-53.023000,222.763000,-45.237000,29.66
1.163993,0.364000,-0.144000,-0.937000,-53.466000,252.489000,-55.863000,29.57
1.174159,0.586000,-0.226000,-1.009000,-48.641000,278.366000,-71.405000,29.61
1.184046,0.583000,-0.288000,-1.126000,-34.427000,284.534000,-79.847000,29.61
1.194164,0.893000,-0.465000,-1.337000,20.794000,271.924000,-82.794000,29.57
1.204012,0.876000,-0.548000,-1.268000,51.878000,309.908000,-57.695000,29.66
1.213993,1.285000,-0.559000,-1.964000,49.664000,341.053000,-84.046000,29.61
1.223968,1.373000,-0.588000,-2.242000,13.481000,391.481000,-155.939000,29.61
1.233931,1.449000,-0.372000,-2.182000,-51.221000,412.244000,-206.397000,29.57
1.243959,1.666000,-0.609000,-2.760000,-75.802000,396.473000,-201.893000,29.57
1.253957,0.931000,-0.636000,-3.234000,-32.443000,293.405000,-192.870000,29.61
1.263985,-0.591000,-2.790000,-2.974000,38.702000,115.069000,-115.618000,29.61
1.273946,1.336000,-4.000000,-3.417000,-61.496000,55.282000,27.115000,29.57
1.283961,-0.604000,-2.647000,-2.860000,-180.046000,-196.595000,93.710000,29.57
1.293923,-1.759000,-0.887000,-1.475000,-180.977000,-152.840000,67.695000,29.66
1.303943,-1.553000,0.069000,-2.100000,-73.084000,-226.168000,17.969000,29.52
1.313975,-1.377000,-0.069000,-1.981000,5.527000,-189.664000,-43.802000,29.57
1.324178,-0.907000,-0.778000,-1.753000,18.824000,-216.718000,-70.733000,29.66
1.334023,-0.535000,-0.964000,-1.419000,27.649000,-220.901000,-93.160000,29.57
1.343998,-0.293000,-0.839000,-1.248000,26.718000,-255.359000,-101.695000,29.61
1.354039,-0.095000,-0.722000,-1.149000,53.405000,-263.481000,-101.420000,29.71
1.364068,0.188000,-0.805000,-1.072000,68.550000,-267.649000,-86.824000,29.66
1.374117,0.427000,-1.005000,-0.930000,78.763000,-279.099000,-58.443000,29.66
1.384045,0.581000,-1.169000,-0.848000,81.954000,-273.481000,-20.809000,29.61
1.394140,0.656000,-1.156000,-0.891000,84.626000,-258.275000,19.405000,29.61
1.404117,0.730000,-1.023000,-0.968000,86.794000,-233.817000,58.183000,29.66
1.414163,0.779000,-0.868000,-1.010000,97.557000,-216.427000,92.626000,29.57
1.424245,0.878000,-0.730000,-1.162000,109.282000,-206.611000,121.328000,29.61
1.434193,0.942000,-0.547000,-1.254000,118.473000,-200.718000,143.038000,29.52
1.444205,0.967000,-0.329000,-1.359000,129.145000,-198.824000,152.656000,29.52
1.454294,0.974000,-0.156000,-1.482000,141.313000,-216.504000,150.824000,29.57
1.464334,1.029000,-0.105000,-1.556000,148.626000,-227.557000,142.733000,29.57
1.474327,1.117000,-0.081000,-1.563000,156.534000,-232.916000,137.725000,29.42
1.484351,1.278000,-0.133000,-1.584000,163.160000,-227.832000,134.015000,29.61
1.494335,1.444000,-0.068000,-1.575000,167.206000,-219.649000,131.618000,29.57
1.504331,1.634000,-0.052000,-1.539000,168.473000,-215.038000,131.023000,29.57
1.514347,1.831000,0.032000,-1.496000,168.321000,-208.305000,128.977000,29.61
1.524318,2.068000,0.179000,-1.417000,170.473000,-195.771000,125.847000,29.61
1.534293,2.227000,0.362000,-1.138000,179.817000,-177.420000,123.435000,29.47
1.544325,2.394000,0.553000,-1.048000,187.939000,-142.397000,122.931000,29.66
1.554384,2.528000,0.722000,-1.057000,189.725000,-105.511000,130.427000,29.47
1.564349,2.625000,0.983000,-0.905000,193.084000,-82.626000,138.687000,29.52
1.574250,2.679000,1.368000,-0.694000,171.267000,-50.382000,131.313000,29.57
1.584407,2.760000,1.690000,-0.459000,137.038000,-80.977000,105.878000,29.57
1.594198,2.666000,1.987000,0.251000,57.939000,-56.244000,64.672000,29.47
1.604336,2.687000,2.282000,-0.042000,33.069000,-53.282000,11.573000,29.52
1.614287,2.818000,2.121000,0.148000,34.534000,-62.611000,-20.260000,29.61
1.624331,2.684000,1.967000,0.311000,28.840000,-5.221000,-41.237000,29.57
1.634224,2.498000,1.802000,0.149000,16.550000,3.160000,-48.901000,29.57
1.644317,2.499000,-0.035000,1.011000,-68.809000,141.038000,-29.053000,29.61
1.654378,-0.938000,0.225000,-0.159000,-91.679000,47.557000,-32.992000,29.52
1.664308,0.974000,-0.351000,-2.738000,-36.031000,42.962000,0.305000,29.66
1.674353,-0.635000,-1.375000,-0.795000,-60.366000,31.481000,0.153000,29.57
1.684409,-0.319000,-0.821000,-0.161000,-53.099000,29.221000,-25.588000,29.61
1.694261,0.281000,-0.038000,-0.740000,-13.374000,160.763000,-33.740000,29.52
1.704412,0.214000,0.965000,-1.819000,-17.008000,193.832000,-52.046000,29.57
1.714346,0.163000,1.348000,-2.890000,-2.275000,180.198000,-95.420000,29.57
1.724499,0.400000,0.726000,-2.379000,25.023000,133.206000,-119.756000,29.61
1.734365,0.730000,-0.244000,-1.434000,54.321000,102.794000,-103.420000,29.52
1.744209,0.646000,-0.831000,-0.867000,73.481000,74.153000,-83.695000,29.57
1.754387,0.598000,-0.924000,-0.552000,53.985000,71.893000,-74.229000,29.57
1.764298,1.017000,-1.146000,-0.996000,23.466000,67.084000,-64.351000,29.57
1.774440,1.188000,-1.155000,-0.750000,-11.405000,87.786000,-47.496000,29.61
1.784285,0.908000,-0.918000,-0.875000,-33.053000,69.466000,-36.397000,29.57
1.794140,0.800000,-0.726000,-1.119000,-46.198000,13.237000,-23.435000,29.66
1.804128,0.583000,-0.621000,-0.891000,-55.588000,-18.779000,-16.458000,29.66
1.814135,0.413000,-0.559000,-0.842000,-64.366000,-26.397000,-12.351000,29.52
1.824529,0.296000,-0.374000,-0.857000,-61.053000,-25.573000,-12.031000,29.61
1.834352,0.187000,-0.231000,-0.913000,-55.893000,-3.725000,-14.122000,29.57
1.844437,0.122000,-0.174000,-0.837000,-57.053000,23.969000,-19.038000,29.47
1.854444,0.135000,-0.243000,-0.764000,-61.634000,24.748000,-20.244000,29.61
1.864436,0.142000,-0.363000,-0.647000,-75.176000,22.382000,-19.634000,29.61
1.874514,0.201000,-0.573000,-0.602000,-81.802000,25.695000,-23.557000,29.61
1.884374,0.349000,-0.662000,-0.611000,-91.878000,33.084000,-27.786000,29.57
1.894495,0.501000,-0.570000,-0.945000,-103.389000,38.382000,-32.290000,29.47
1.904274,0.590000,-0.466000,-0.934000,-103.695000,35.710000,-30.733000,29.52
1.914192,0.465000,-0.417000,-0.879000,-101.344000,25.740000,-31.466000,29.52
1.924240,0.443000,-0.409000,-0.894000,-107.802000,20.046000,-28.901000,29.57
1.934136,0.419000,-0.307000,-0.984000,-91.817000,-2.687000,-27.817000,29.57
1.944049,0.385000,-0.252000,-1.021000,-94.076000,-2.122000,-29.756000,29.52
1.954100,0.316000,-0.067000,-1.015000,-83.725000,-4.977000,-30.458000,29.52
1.964122,0.295000,-0.297000,-0.878000,-71.405000,-5.832000,-36.076000,29.57
1.974248,0.298000,-0.227000,-0.973000,-68.076000,3.893000,-41.191000,29.57
1.984203,0.312000,-0.125000,-1.025000,-61.313000,14.244000,-40.947000,29.61
1.994160,0.403000,-0.184000,-0.993000,-61.389000,31.771000,-36.275000,29.52
2.004164,0.394000,-0.127000,-1.039000,-45.511000,29.969000,-34.183000,29.52
2.014052,0.406000,-0.197000,-0.972000,-42.550000,27.939000,-33.985000,29.57
2.024146,0.411000,-0.195000,-0.951000,-37.160000,26.916000,-35.145000,29.57
2.034040,0.350000,-0.288000,-0.907000,-34.275000,33.679000,-33.008000,29.61
2.044003,0.450000,-0.177000,-0.942000,-35.282000,40.626000,-35.618000,29.57
2.054027,0.462000,-0.198000,-0.915000,-36.656000,43.939000,-38.198000,29.47
2.064083,0.531000,-0.369000,-0.733000,-47.206000,66.595000,-40.351000,29.57
2.074248,0.431000,-0.279000,-0.921000,-46.214000,62.489000,-36.382000,29.52
2.084154,0.337000,-0.114000,-0.984000,-49.435000,86.183000,-38.458000,29.52
2.094088,0.458000,-0.222000,-0.927000,-50.733000,104.351000,-37.557000,29.57
2.104123,0.405000,-0.230000,-0.959000,-60.137000,120.031000,-31.603000,29.57
2.114232,0.365000,-0.089000,-0.970000,-64.794000,137.313000,-34.885000,29.61
2.124257,0.322000,-0.043000,-0.841000,-71.771000,163.481000,-39.389000,29.52
2.134239,0.256000,0.024000,-0.793000,-86.092000,186.809000,-51.282000,29.57
2.144254,0.379000,0.058000,-0.894000,-86.061000,196.046000,-56.458000,29.57
2.154309,0.320000,0.005000,-0.973000,-79.420000,211.588000,-58.153000,29.57
2.164410,0.462000,0.092000,-0.803000,-73.099000,250.687000,-71.282000,29.52
2.174291,0.615000,-0.050000,-0.904000,-85.756000,261.420000,-78.931000,29.52
2.184408,0.429000,-0.127000,-0.864000,-91.756000,284.840000,-92.840000,29.47
2.194374,1.149000,-0.284000,-0.969000,-36.473000,250.641000,-4.031000,29.57
2.204490,1.093000,-0.283000,-0.920000,-37.878000,279.817000,31.802000,29.61
2.214375,0.938000,-0.474000,-1.260000,-26.321000,260.794000,-70.611000,29.52
2.224316,1.406000,-0.511000,-1.690000,4.061000,354.916000,-93.847000,29.57
2.234410,1.615000,-0.685000,-2.276000,-27.740000,366.687000,-168.626000,29.57
2.244273,1.676000,-0.390000,-2.429000,-137.832000,462.580000,-215.374000,29.52
2.254394,1.913000,-0.575000,-2.299000,-160.901000,393.160000,-271.847000,29.61
2.264365,1.617000,-0.819000,-2.451000,-148.336000,258.916000,-251.420000,29.47
2.274347,0.220000,-1.258000,-2.155000,-70.168000,125.771000,-141.267000,29.47
2.284277,1.183000,-3.992000,-4.000000,61.618000,78.489000,13.756000,29.52
2.294328,0.551000,-3.356000,-2.999000,-80.107000,14.061000,93.679000,29.61
2.304478,-0.921000,-2.593000,-0.570000,-42.031000,-239.282000,137.679000,29.57
2.314316,-0.604000,-1.363000,-1.549000,-53.679000,-190.321000,158.962000,29.66
2.325466,-0.591000,-0.815000,-1.840000,-8.214000,-138.351000,153.450000,29.57
2.334824,-0.885000,-0.655000,-1.205000,40.427000,-107.481000,111.267000,29.52
2.344330,-0.645000,-0.788000,-1.547000,68.427000,-162.137000,93.832000,29.71
2.354018,-0.483000,-0.664000,-1.307000,43.511000,-174.626000,56.870000,29.57
2.363945,-0.213000,-0.396000,-1.304000,29.954000,-219.878000,26.992000,29.57
2.373990,-0.067000,-0.226000,-1.391000,47.557000,-260.122000,-2.137000,29.52
2.383955,0.250000,-0.194000,-1.488000,82.779000,-287.298000,-20.931000,29.52
2.393996,0.423000,-0.288000,-1.292000,117.939000,-300.061000,-32.015000,29.57
2.403998,0.533000,-0.417000,-1.071000,146.840000,-310.870000,-33.725000,29.57
2.414009,0.732000,-0.583000,-0.888000,154.290000,-307.099000,-27.130000,29.61
2.424115,0.778000,-0.598000,-0.779000,153.634000,-284.840000,-16.656000,29.52
2.434056,0.848000,-0.600000,-0.904000,155.511000,-261.176000,1.893000,29.57
2.444097,0.940000,-0.540000,-1.054000,171.649000,-241.954000,24.244000,29.57
2.454036,0.995000,-0.555000,-1.137000,189.939000,-221.878000,50.397000,29.52
2.464074,1.035000,-0.540000,-1.166000,204.336000,-210.595000,75.527000,29.61
2.474218,1.074000,-0.487000,-1.264000,208.260000,-209.359000,96.427000,29.61
2.484128,1.087000,-0.360000,-1.267000,206.275000,-194.244000,114.840000,29.47
2.494203,1.085000,-0.257000,-1.313000,209.298000,-173.191000,132.290000,29.57
2.504217,1.128000,-0.125000,-1.449000,218.076000,-156.519000,144.076000,29.52
2.514217,1.253000,0.017000,-1.612000,224.046000,-132.504000,149.924000,29.57
2.524287,1.515000,0.089000,-1.876000,224.855000,-118.214000,154.214000,29.47
2.534246,1.687000,0.219000,-1.934000,209.084000,-103.756000,156.962000,29.57
2.544221,1.774000,0.481000,-1.911000,211.420000,-130.656000,155.252000,29.52
2.554258,1.754000,0.730000,-1.613000,193.420000,-132.122000,146.947000,29.52
2.564408,1.931000,1.055000,-1.632000,206.870000,-149.740000,131.023000,29.47
2.574344,2.123000,1.232000,-1.393000,198.153000,-145.496000,120.901000,29.57
2.584341,2.312000,1.258000,-1.194000,192.931000,-152.046000,115.496000,29.52
2.594243,2.477000,1.322000,-0.819000,162.137000,-148.626000,108.840000,29.61
2.604357,2.671000,1.552000,-0.333000,152.779000,-93.527000,92.824000,29.47
2.614317,2.561000,1.576000,-0.204000,90.672000,-102.412000,64.977000,29.57
2.624314,2.636000,1.766000,0.157000,92.366000,-28.595000,75.969000,29.52
2.634157,2.669000,1.833000,-0.042000,76.718000,6.748000,72.214000,29.52
2.644036,2.813000,1.631000,0.025000,60.412000,33.237000,65.786000,29.47
2.654010,2.686000,1.555000,0.076000,6.885000,57.115000,61.740000,29.57
2.664030,0.110000,-0.235000,1.231000,-30.656000,64.779000,47.542000,29.52
2.674226,0.540000,1.217000,-0.238000,-110.244000,79.221000,21.847000,29.52
2.684130,0.837000,-1.037000,-2.731000,-124.626000,139.786000,-10.382000,29.57
2.694097,-1.114000,-1.382000,-1.450000,-108.504000,-8.870000,5.802000,29.57
2.704086,-1.622000,-0.266000,0.027000,-100.534000,-21.282000,-37.130000,29.47
2.714138,-0.315000,0.130000,-0.081000,-127.084000,107.282000,-87.985000,29.61
2.724132,0.626000,0.493000,-0.992000,-75.664000,203.634000,-109.542000,29.57
2.734164,1.004000,0.323000,-2.798000,-59.969000,193.191000,-111.389000,29.57
2.744159,0.611000,0.291000,-2.093000,-43.740000,174.015000,-123.405000,29.57
2.754196,0.658000,0.012000,-1.930000,-15.511000,148.153000,-115.191000,29.52
2.764173,0.749000,-0.318000,-1.577000,12.855000,102.840000,-93.878000,29.52
2.774326,0.607000,-0.511000,-1.081000,16.443000,95.466000,-89.313000,29.57
2.784254,0.926000,-0.936000,-0.757000,2.305000,77.206000,-73.588000,29.47
2.794354,1.000000,-0.993000,-0.674000,-22.718000,79.725000,-59.878000,29.52
2.804337,1.064000,-0.985000,-0.753000,-42.656000,81.466000,-41.359000,29.52
2.814310,0.637000,-0.667000,-0.741000,-54.794000,52.656000,-35.252000,29.57
2.824288,0.517000,-0.659000,-0.766000,-50.458000,5.771000,-34.443000,29.38
2.834415,0.367000,-0.677000,-0.501000,-91.481000,-0.244000,-33.603000,29.61
2.844339,0.247000,-0.518000,-0.574000,-129.328000,-1.969000,-38.687000,29.61
2.854395,0.303000,-0.456000,-0.651000,-159.176000,1.359000,-42.092000,29.66
2.864395,0.428000,-0.477000,-0.925000,-173.771000,31.435000,-46.397000,29.57
2.874380,0.513000,-0.384000,-1.241000,-150.305000,45.038000,-46.412000,29.52
2.884442,0.510000,-0.123000,-1.248000,-119.313000,41.893000,-39.893000,29.42
2.894448,0.488000,-0.174000,-1.194000,-84.870000,24.153000,-29.160000,29.61
2.904391,0.471000,-0.320000,-0.998000,-61.191000,12.260000,-23.847000,29.57
2.914339,0.471000,-0.351000,-0.813000,-52.550000,0.855000,-24.977000,29.66
2.924245,0.513000,-0.367000,-0.940000,-54.824000,16.305000,-27.481000,29.52
2.934306,0.390000,-0.274000,-0.725000,-61.679000,18.275000,-31.527000,29.47
2.944390,0.466000,-0.462000,-0.809000,-73.450000,15.588000,-36.916000,29.66
2.954393,0.476000,-0.392000,-0.817000,-83.420000,3.710000,-42.366000,29.57
2.964435,0.448000,-0.337000,-0.985000,-82.137000,-0.290000,-46.824000,29.52
2.974411,0.460000,-0.278000,-0.837000,-93.389000,12.427000,-43.618000,29.52
2.984401,0.460000,-0.155000,-0.892000,-72.672000,1.328000,-46.382000,29.57
2.994376,0.413000,-0.176000,-0.891000,-59.313000,2.397000,-46.015000,29.57
3.004480,0.423000,-0.120000,-0.935000,-49.084000,6.397000,-41.618000,29.52
3.014425,0.426000,-0.101000,-0.908000,-42.000000,14.779000,-39.618000,29.52
3.024325,0.428000,-0.159000,-0.913000,-38.794000,22.153000,-37.344000,29.47
3.034412,0.444000,-0.093000,-0.930000,-34.412000,24.977000,-37.069000,29.57
3.044405,0.524000,-0.319000,-0.879000,-38.641000,41.695000,-35.466000,29.52
3.054389,0.388000,-0.169000,-0.839000,-27.221000,42.504000,-35.023000,29.52
3.064505,0.423000,-0.166000,-0.907000,-29.710000,50.336000,-34.733000,29.57
3.074382,0.517000,-0.126000,-0.876000,-29.786000,60.412000,-31.695000,29.66
3.084333,0.447000,-0.191000,-0.885000,-31.679000,70.885000,-30.443000,29.61
3.094456,0.459000,-0.210000,-0.901000,-35.313000,82.733000,-28.992000,29.61
3.104508,0.498000,-0.207000,-0.898000,-39.405000,94.107000,-29.221000,29.57
3.114436,0.518000,-0.185000,-0.845000,-42.885000,118.427000,-28.763000,29.57
3.124462,0.482000,-0.087000,-0.874000,-44.260000,140.702000,-29.771000,29.47
3.134438,0.398000,-0.062000,-0.818000,-48.427000,163.588000,-32.947000,29.61
3.144444,0.374000,-0.086000,-0.833000,-57.328000,174.565000,-46.031000,29.57
3.154545,0.376000,-0.070000,-0.870000,-68.443000,194.244000,-57.924000,29.47
3.164480,0.402000,-0.097000,-0.835000,-52.137000,191.725000,-66.366000,29.57
3.174477,0.446000,0.200000,-0.774000,-54.122000,235.344000,-78.626000,29.52
3.184318,0.590000,-0.024000,-0.938000,-49.786000,247.664000,-78.962000,29.61
3.194372,0.492000,-0.118000,-0.973000,-43.099000,263.344000,-76.061000,29.57
3.204335,1.629000,-0.560000,-1.450000,1.969000,272.244000,-22.000000,29.66
3.214334,1.416000,-0.565000,-1.173000,9.206000,275.496000,15.359000,29.52
3.224402,0.650000,-0.407000,-1.531000,5.832000,334.702000,-31.954000,29.52
3.234243,1.276000,-0.248000,-1.813000,10.992000,350.656000,-92.992000,29.57
3.244376,1.654000,-0.287000,-2.308000,-14.763000,384.061000,-147.496000,29.57
3.254343,1.430000,-0.315000,-2.326000,-64.718000,380.702000,-220.412000,29.47
3.264091,1.684000,-0.641000,-2.173000,-175.908000,471.252000,-175.038000,29.52
3.274292,0.174000,-1.736000,-2.922000,-9.618000,180.229000,-143.924000,29.52
3.284269,-0.986000,-4.000000,-4.000000,26.183000,-19.435000,2.534000,29.57
3.294233,0.760000,-3.388000,-4.000000,-83.573000,-190.046000,62.733000,29.57
3.304249,-1.620000,-1.749000,-1.043000,-142.427000,-281.802000,58.794000,29.52
3.314540,-0.814000,-1.159000,-1.502000,-128.473000,-274.137000,35.344000,29.61
3.324389,-0.593000,-0.877000,-2.151000,-80.397000,-366.061000,20.763000,29.47
3.334483,-0.533000,-0.912000,-1.782000,-61.405000,-169.023000,-1.710000,29.57
3.344506,-0.247000,-0.977000,-1.322000,3.023000,-208.947000,-24.611000,29.61
3.354571,-0.125000,-0.898000,-0.922000,24.840000,-253.420000,-38.855000,29.57
3.364560,0.086000,-0.809000,-0.845000,33.542000,-277.450000,-43.344000,29.57
3.374562,0.295000,-0.777000,-0.882000,53.053000,-280.122000,-35.710000,29.57
3.384204,0.483000,-0.799000,-0.968000,84.794000,-269.542000,-21.603000,29.61
3.394462,0.513000,-0.829000,-0.829000,105.771000,-244.336000,-5.893000,29.52
3.404436,0.538000,-0.836000,-0.736000,123.725000,-228.565000,10.015000,29.57
3.414355,0.602000,-0.767000,-0.773000,133.130000,-208.489000,26.382000,29.57
3.424469,0.720000,-0.798000,-0.939000,139.099000,-198.107000,44.611000,29.52
3.434427,0.842000,-0.768000,-1.105000,146.000000,-191.496000,65.802000,29.52
3.444444,0.872000,-0.661000,-1.147000,152.000000,-181.939000,85.649000,29.52
3.454468,0.894000,-0.605000,-1.173000,161.710000,-177.527000,106.580000,29.57
3.464552,0.892000,-0.372000,-1.239000,171.832000,-166.275000,128.107000,29.57
3.474430,1.115000,-0.429000,-1.322000,161.878000,-158.061000,161.084000,29.61
3.484332,0.981000,0.093000,-1.771000,188.702000,-151.099000,149.282000,29.52
3.494506,0.776000,0.131000,-1.600000,196.244000,-160.962000,139.695000,29.47
3.504536,0.909000,0.069000,-1.696000,196.092000,-170.748000,122.992000,29.57
3.514573,0.982000,0.158000,-1.908000,195.557000,-183.847000,103.359000,29.52
3.524498,1.245000,0.217000,-2.012000,206.840000,-192.015000,84.992000,29.61
3.534368,1.459000,0.164000,-1.833000,212.641000,-191.771000,74.489000,29.57
3.544340,1.675000,0.132000,-1.575000,211.740000,-190.061000,75.435000,29.47
3.554459,1.859000,0.187000,-1.324000,210.244000,-191.008000,86.611000,29.52
3.564403,1.927000,0.334000,-1.184000,203.344000,-179.115000,99.496000,29.52
3.574472,1.962000,0.562000,-1.145000,199.435000,-150.947000,108.626000,29.57
3.584416,2.056000,0.795000,-1.119000,199.221000,-126.611000,114.122000,29.47
3.594418,2.169000,1.015000,-0.974000,199.908000,-106.061000,119.069000,29.52
3.604451,2.303000,1.166000,-0.768000,194.947000,-75.160000,122.122000,29.52
3.614459,2.433000,1.264000,-0.482000,167.603000,-40.107000,125.664000,29.57
3.624444,2.565000,1.436000,-0.275000,128.824000,-17.893000,128.015000,29.38
3.634297,2.469000,1.722000,0.081000,83.542000,11.802000,121.863000,29.52
3.644408,2.566000,1.833000,-0.176000,42.870000,23.679000,107.313000,29.52
3.654385,2.573000,1.837000,-0.240000,0.534000,30.885000,90.107000,29.57
3.664482,2.411000,1.867000,-0.218000,-40.366000,32.000000,73.496000,29.57
3.674442,1.728000,1.887000,1.479000,-30.427000,120.870000,8.733000,29.42
3.684461,-0.152000,0.579000,-0.475000,72.046000,-141.924000,-21.359000,29.52
3.694386,0.897000,-0.766000,-3.497000,-61.710000,26.672000,-80.107000,29.52
3.704469,-1.284000,-1.377000,-1.282000,-36.779000,-29.344000,-68.382000,29.57
3.714611,-0.852000,-1.302000,0.495000,-47.496000,-14.931000,-86.427000,29.57
3.724488,0.485000,-1.302000,0.659000,-65.924000,135.450000,-94.916000,29.52
3.734427,0.818000,-0.233000,-0.448000,-61.374000,194.275000,-77.618000,29.52
3.744469,0.861000,-0.158000,-2.450000,-56.489000,213.282000,-68.534000,29.47
3.754586,0.342000,0.690000,-2.443000,-57.450000,193.374000,-96.458000,29.47
3.764578,0.297000,0.542000,-2.103000,-20.458000,120.626000,-112.580000,29.42
3.774455,0.480000,-0.231000,-1.645000,13.496000,107.084000,-96.672000,29.57
3.784304,0.450000,-0.638000,-0.805000,35.863000,81.954000,-85.481000,29.47
3.794428,0.523000,-0.759000,-0.717000,27.450000,98.260000,-83.725000,29.57
3.804483,0.927000,-1.089000,-0.796000,8.244000,87.802000,-68.580000,29.52
3.814490,0.913000,-0.948000,-0.775000,-15.206000,109.481000,-59.481000,29.52
3.824476,0.971000,-0.935000,-0.868000,-26.229000,96.840000,-46.427000,29.47
3.834346,0.577000,-0.701000,-0.772000,-35.786000,68.031000,-39.847000,29.57
3.844337,0.513000,-0.745000,-0.726000,-42.275000,39.496000,-36.611000,29.52
3.854449,0.426000,-0.728000,-0.700000,-58.718000,28.687000,-38.244000,29.42
3.864396,0.580000,-0.634000,-0.979000,-62.489000,30.748000,-37.191000,29.57
3.874483,0.442000,-0.416000,-0.916000,-59.695000,40.748000,-35.924000,29.57
3.884429,0.386000,-0.419000,-0.902000,-55.481000,39.420000,-35.069000,29.57
3.894377,0.469000,-0.402000,-0.917000,-50.260000,24.382000,-31.344000,29.52
3.904448,0.446000,-0.412000,-0.847000,-47.252000,21.130000,-27.435000,29.52
3.914490,0.398000,-0.418000,-0.805000,-44.092000,15.756000,-26.443000,29.57
3.924258,0.434000,-0.431000,-0.765000,-47.878000,19.740000,-27.893000,29.47
3.934477,0.463000,-0.522000,-0.708000,-54.656000,25.618000,-28.687000,29.52
3.944420,0.476000,-0.461000,-0.744000,-61.802000,26.397000,-30.061000,29.61
3.954416,0.474000,-0.459000,-0.691000,-71.496000,15.588000,-30.840000,29.57
3.964449,0.447000,-0.499000,-0.630000,-88.718000,5.954000,-32.794000,29.57
3.974370,0.456000,-0.470000,-0.674000,-104.046000,0.015000,-35.679000,29.52
3.984365,0.469000,-0.463000,-0.763000,-111.298000,0.168000,-37.969000,29.57
3.994395,0.489000,-0.374000,-0.886000,-110.611000,3.634000,-39.420000,29.57
4.004469,0.492000,-0.329000,-0.956000,-108.916000,-0.443000,-37.359000,29.57
4.014286,0.428000,-0.175000,-0.965000,-95.847000,-5.176000,-35.542000,29.52
4.024286,0.430000,-0.344000,-0.898000,-92.962000,-4.168000,-38.290000,29.61
4.034194,0.469000,-0.332000,-0.889000,-95.878000,15.817000,-29.191000,29.57
4.044203,0.420000,-0.256000,-0.807000,-74.122000,11.527000,-35.985000,29.57
4.054069,0.453000,-0.188000,-0.999000,-69.511000,17.023000,-35.985000,29.57
4.064287,0.472000,-0.242000,-0.944000,-64.870000,26.748000,-34.046000,29.61
4.074151,0.429000,-0.262000,-0.924000,-56.412000,24.595000,-33.008000,29.52
4.084329,0.448000,-0.236000,-0.872000,-49.939000,15.298000,-35.420000,29.47
4.094260,0.445000,-0.249000,-0.842000,-57.084000,32.977000,-35.130000,29.57
4.104296,0.429000,-0.150000,-0.906000,-42.427000,42.336000,-35.725000,29.61
4.114181,0.463000,-0.208000,-0.903000,-33.252000,43.557000,-34.641000,29.52
4.124228,0.414000,-0.432000,-0.821000,-34.916000,66.702000,-34.763000,29.47
4.134176,0.406000,-0.308000,-0.913000,-39.664000,85.221000,-40.229000,29.47
4.144310,0.453000,-0.331000,-0.863000,-56.427000,104.687000,-43.237000,29.52
4.154334,0.437000,-0.158000,-0.889000,-58.687000,134.656000,-48.061000,29.61
4.164220,0.512000,-0.178000,-0.862000,-65.496000,156.046000,-43.511000,29.47
4.174367,0.347000,-0.056000,-0.821000,-75.649000,190.275000,-46.168000,29.57
4.184207,0.418000,-0.052000,-0.827000,-71.985000,201.481000,-52.321000,29.52
4.194223,0.447000,0.007000,-0.850000,-54.015000,207.069000,-49.802000,29.42
4.204372,0.421000,-0.031000,-0.848000,-51.542000,240.794000,-54.656000,29.57
4.214354,0.524000,-0.102000,-0.816000,-56.122000,263.496000,-69.405000,29.57
4.224307,0.580000,-0.331000,-1.132000,-57.374000,227.985000,-83.664000,29.47
4.234257,0.730000,-0.369000,-1.145000,-65.969000,273.710000,-105.374000,29.42
4.244154,1.381000,-0.444000,-1.176000,-11.099000,262.489000,-5.679000,29.57
4.254353,1.158000,-0.489000,-1.684000,-5.725000,341.756000,-32.840000,29.47
4.264226,1.451000,-0.505000,-2.126000,16.733000,393.191000,-122.992000,29.57
4.274306,1.898000,-0.760000,-2.625000,-0.061000,402.458000,-192.336000,29.52
4.284235,1.382000,-0.403000,-1.935000,-96.198000,437.817000,-273.145000,29.52
4.294393,1.591000,-0.892000,-2.542000,-147.710000,451.603000,-217.221000,29.57
4.304337,0.652000,-1.221000,-2.933000,-117.099000,279.282000,-178.870000,29.47
4.314191,-0.554000,-4.000000,-2.695000,-66.870000,117.664000,-42.412000,29.42
4.323866,1.983000,-4.000000,-4.000000,-114.855000,54.382000,116.489000,29.61
4.333979,-0.762000,-2.331000,-2.516000,-184.351000,-155.145000,152.519000,29.57
4.343937,-1.722000,-1.150000,-1.162000,-162.885000,-154.107000,129.099000,29.47
4.353945,-1.045000,-0.260000,-2.159000,-118.702000,-230.275000,78.809000,29.61
4.363917,-0.842000,-0.431000,-2.226000,-80.641000,-189.954000,27.771000,29.52
4.374061,-0.488000,-0.848000,-1.897000,-65.588000,-187.802000,-11.115000,29.66
4.383934,-0.176000,-0.968000,-1.737000,-50.321000,-284.183000,-32.763000,29.47
4.394350,-0.023000,-0.728000,-1.423000,-38.840000,-314.977000,-55.985000,29.47
4.403918,0.192000,-0.507000,-1.327000,4.565000,-347.069000,-74.061000,29.52
4.414022,0.512000,-0.490000,-1.147000,48.366000,-341.924000,-83.588000,29.61
4.424036,0.661000,-0.660000,-0.871000,91.985000,-348.580000,-83.695000,29.66
4.433938,0.788000,-0.973000,-0.665000,119.878000,-332.275000,-74.687000,29.47
4.443917,1.207000,-1.193000,-0.655000,128.840000,-310.397000,-42.168000,29.61
4.453945,1.202000,-1.427000,-0.654000,123.664000,-283.649000,2.305000,29.57
4.464015,1.328000,-1.368000,-0.868000,120.870000,-266.870000,55.679000,29.47
4.474857,1.326000,-1.170000,-0.963000,129.679000,-253.267000,105.771000,29.47
4.484770,1.270000,-0.893000,-0.919000,145.542000,-239.084000,139.389000,29.52
4.494668,1.215000,-0.606000,-0.874000,159.328000,-226.534000,157.649000,29.52
4.504723,1.208000,-0.363000,-0.889000,171.221000,-206.000000,161.481000,29.47
4.514729,1.238000,-0.250000,-1.111000,179.252000,-183.588000,160.153000,29.47
4.524592,1.244000,-0.238000,-1.192000,176.260000,-155.313000,158.046000,29.52
4.534693,1.274000,-0.219000,-1.295000,176.580000,-165.496000,156.489000,29.61
4.544788,1.405000,-0.155000,-1.484000,178.855000,-162.840000,148.198000,29.47
4.554650,1.729000,-0.195000,-1.708000,193.511000,-160.718000,144.779000,29.47
4.564863,2.096000,-0.152000,-1.823000,205.008000,-166.947000,155.924000,29.57
4.574868,2.188000,0.103000,-1.549000,204.687000,-173.023000,168.885000,29.42
4.584815,1.991000,0.420000,-1.179000,202.748000,-181.969000,164.611000,29.52
4.594828,2.105000,0.760000,-1.310000,200.992000,-170.198000,151.725000,29.57
4.604888,2.208000,1.029000,-1.470000,209.695000,-154.183000,134.870000,29.47
4.614573,2.332000,1.216000,-1.365000,217.954000,-142.198000,120.962000,29.61
4.624666,2.483000,1.366000,-0.939000,226.290000,-134.855000,108.183000,29.52
4.634730,2.629000,1.511000,-0.535000,207.435000,-114.382000,93.771000,29.57
4.644456,2.721000,1.803000,-0.274000,169.084000,-83.298000,76.260000,29.47
4.654563,2.782000,1.999000,0.171000,135.893000,-46.962000,49.374000,29.61
4.664463,2.817000,2.185000,0.237000,98.992000,-19.527000,23.206000,29.57
4.674466,2.839000,2.208000,0.240000,66.061000,23.405000,0.855000,29.57
4.684510,2.789000,1.918000,0.150000,21.237000,48.870000,-12.824000,29.47
4.694433,2.659000,1.451000,0.078000,-13.176000,95.588000,-22.504000,29.52
4.704516,1.454000,1.374000,-0.712000,-84.153000,51.282000,-44.702000,29.42
4.714498,0.632000,-0.986000,-1.933000,-49.145000,89.710000,7.282000,29.57
4.724521,-0.677000,-2.154000,-1.411000,-90.977000,-8.031000,31.221000,29.47
4.734167,-0.445000,-0.740000,0.028000,-101.985000,75.969000,1.725000,29.57
4.744269,0.062000,0.240000,-0.500000,-90.947000,130.122000,-33.496000,29.52
4.754395,0.139000,1.188000,-1.370000,-57.130000,181.924000,-60.153000,29.52
4.764350,-0.028000,1.387000,-2.934000,-41.191000,132.382000,-94.641000,29.47
4.774233,0.171000,0.884000,-2.802000,-13.878000,157.069000,-136.504000,29.38
4.784177,0.687000,0.022000,-1.755000,44.550000,101.435000,-130.443000,29.52
4.794204,0.871000,-0.952000,-1.081000,56.901000,102.260000,-112.031000,29.52
4.804151,0.918000,-1.232000,-0.626000,35.786000,96.916000,-88.977000,29.47
4.814088,1.148000,-1.299000,-0.801000,2.595000,72.779000,-67.450000,29.47
4.824034,0.983000,-0.963000,-0.737000,-27.328000,83.344000,-54.519000,29.42
4.833944,0.927000,-1.007000,-0.808000,-43.985000,49.481000,-44.504000,29.52
4.843912,0.811000,-0.943000,-0.668000,-62.580000,13.023000,-33.786000,29.47
4.853934,0.484000,-0.677000,-0.689000,-74.748000,-10.779000,-29.908000,29.57
4.863955,0.261000,-0.401000,-0.746000,-103.969000,-13.924000,-32.107000,29.52
4.876132,0.106000,-0.282000,-0.619000,-132.656000,-19.374000,-34.412000,29.47
4.884539,0.066000,-0.335000,-0.563000,-161.573000,-2.794000,-39.756000,29.47
4.894415,0.264000,-0.583000,-0.835000,-161.221000,28.443000,-43.450000,29.57
4.904000,0.386000,-0.415000,-0.979000,-145.450000,43.466000,-41.786000,29.42
4.913947,0.497000,-0.314000,-1.233000,-124.687000,52.061000,-40.855000,29.42
4.924083,0.461000,-0.353000,-1.066000,-100.427000,26.137000,-37.130000,29.47
4.933980,0.479000,-0.510000,-0.970000,-89.160000,20.107000,-34.977000,29.47
4.943943,0.472000,-0.476000,-0.883000,-89.099000,5.985000,-36.214000,29.52
4.953993,0.420000,-0.438000,-0.843000,-87.450000,-7.420000,-40.000000,29.52
4.964021,0.454000,-0.430000,-0.932000,-97.557000,-8.504000,-42.244000,29.57
4.974121,0.423000,-0.157000,-1.053000,-95.252000,-2.687000,-42.595000,29.57
4.984036,0.408000,-0.396000,-0.854000,-97.893000,-9.450000,-42.336000,29.52
4.994118,0.428000,-0.154000,-1.141000,-129.893000,19.466000,-36.840000,29.52
5.004167,0.467000,-0.300000,-0.813000,-87.573000,5.618000,-46.229000,29.47
5.014111,0.419000,0.018000,-1.069000,-77.206000,5.038000,-41.420000,29.47
5.024187,0.382000,-0.045000,-1.012000,-55.145000,16.076000,-36.962000,29.42
5.034314,0.447000,-0.045000,-1.100000,-43.420000,21.802000,-32.198000,29.52
5.044221,0.378000,-0.046000,-0.940000,-44.641000,17.115000,-26.794000,29.47
5.054261,0.379000,-0.104000,-0.911000,-31.115000,23.496000,-25.130000,29.57
5.064275,0.395000,-0.111000,-0.921000,-20.626000,25.374000,-21.649000,29.47
5.074248,0.514000,-0.192000,-0.814000,-30.595000,30.321000,-18.336000,29.52
5.084474,0.348000,-0.236000,-0.859000,-20.122000,43.679000,-24.290000,29.57
5.094403,0.045000,0.038000,-0.998000,-30.183000,34.885000,-45.099000,29.57
5.104448,0.515000,-0.703000,-0.926000,-42.168000,43.359000,-34.015000,29.47
5.114299,0.405000,-0.201000,-0.831000,-45.863000,77.389000,-50.382000,29.61
5.124484,0.395000,-0.236000,-0.886000,-59.405000,88.397000,-51.557000,29.42
5.134334,0.557000,-0.152000,-0.948000,-57.542000,96.870000,-51.221000,29.57
5.144404,0.390000,-0.115000,-0.935000,-67.939000,112.000000,-47.038000,29.57
5.154476,0.356000,-0.117000,-0.886000,-65.130000,126.214000,-54.931000,29.61
5.164143,0.313000,0.037000,-0.886000,-69.344000,155.985000,-62.641000,29.61
5.174111,0.331000,0.064000,-0.929000,-72.534000,188.550000,-59.374000,29.57
5.183963,0.392000,0.135000,-1.041000,-65.649000,210.977000,-55.374000,29.47
5.193938,0.408000,0.131000,-1.015000,-46.321000,229.221000,-51.740000,29.52
5.203917,0.483000,-0.226000,-1.036000,-19.053000,242.504000,-56.656000,29.42
5.213936,0.543000,-0.258000,-0.976000,-13.634000,261.710000,-71.282000,29.57
5.223917,0.657000,-0.242000,-1.102000,7.084000,296.519000,-80.534000,29.47
5.233949,0.970000,-0.341000,-0.842000,-30.122000,262.702000,-64.855000,29.52
5.243986,1.006000,-0.293000,-1.418000,-51.359000,284.412000,-88.962000,29.57
5.253971,1.182000,-0.362000,-1.882000,-53.618000,326.626000,-139.603000,29.57
5.264043,1.737000,-0.622000,-2.327000,-68.168000,353.924000,-203.252000,29.47
5.274191,1.613000,-0.982000,-2.341000,-103.420000,349.786000,-256.504000,29.52
5.284053,1.860000,-0.948000,-2.741000,-94.763000,259.954000,-241.130000,29.52
5.294014,-0.373000,-3.356000,-3.356000,-11.969000,135.481000,-132.351000,29.57
5.304031,1.493000,-4.000000,-2.636000,-9.252000,1.695000,2.977000,29.47
5.314173,-0.848000,-3.091000,-1.873000,-117.237000,-26.672000,60.840000,29.47
5.324095,-0.502000,-2.268000,-1.179000,-117.786000,-115.420000,74.733000,29.52
5.334047,-0.575000,-1.635000,-1.894000,-129.130000,-139.313000,93.008000,29.52
5.344077,-0.854000,-1.181000,-2.065000,-87.084000,-111.099000,81.725000,29.57
5.354120,-0.821000,-0.910000,-1.792000,-41.863000,-118.031000,57.664000,29.57
5.364080,-0.779000,-0.837000,-1.350000,0.580000,-163.847000,28.809000,29.52
5.374171,-0.595000,-0.712000,-1.168000,23.328000,-188.779000,0.718000,29.52
5.384186,-0.319000,-0.591000,-1.129000,49.298000,-210.336000,-16.366000,29.47
5.394187,-0.112000,-0.536000,-1.098000,83.405000,-218.702000,-24.137000,29.38
5.404251,0.109000,-0.524000,-1.052000,119.298000,-220.931000,-25.450000,29.42
5.414284,0.263000,-0.552000,-0.972000,146.504000,-216.351000,-23.374000,29.52
5.424331,0.382000,-0.626000,-1.006000,164.504000,-212.260000,-16.183000,29.47
5.434280,0.540000,-0.676000,-1.061000,175.405000,-208.183000,-0.641000,29.57
5.444331,0.699000,-0.688000,-1.100000,184.290000,-196.687000,22.214000,29.52
5.454358,0.822000,-0.720000,-1.121000,190.626000,-187.038000,51.985000,29.52
5.464472,0.937000,-0.675000,-1.165000,194.702000,-183.802000,85.802000,29.47
5.474351,0.981000,-0.543000,-1.233000,195.298000,-173.740000,118.855000,29.47
5.484352,0.985000,-0.386000,-1.358000,196.107000,-163.603000,147.634000,29.52
5.494643,0.971000,-0.230000,-1.485000,197.298000,-158.015000,169.771000,29.42
5.504531,0.947000,-0.117000,-1.591000,199.008000,-155.832000,183.313000,29.47
5.514513,1.005000,0.010000,-1.756000,197.603000,-154.748000,187.023000,29.57
5.524418,1.132000,0.100000,-1.919000,196.382000,-159.511000,181.359000,29.52
5.534464,1.337000,0.112000,-1.941000,195.298000,-172.641000,172.962000,29.52
5.544428,1.557000,0.265000,-1.855000,198.336000,-178.779000,170.076000,29.42
5.554574,1.786000,0.425000,-1.714000,197.954000,-182.840000,166.656000,29.47
5.564437,1.917000,0.396000,-1.542000,187.328000,-183.435000,165.237000,29.38
5.574388,2.091000,0.407000,-1.447000,172.824000,-177.237000,168.794000,29.52
5.584473,2.255000,0.530000,-1.347000,162.687000,-172.015000,168.702000,29.52
5.594553,2.338000,0.700000,-1.054000,153.023000,-149.496000,163.160000,29.47
5.604603,2.504000,0.956000,-0.936000,150.916000,-138.672000,153.099000,29.47
5.614440,2.482000,1.280000,-0.607000,146.412000,-108.473000,139.084000,29.52
5.624376,2.495000,1.446000,-0.404000,165.450000,-76.840000,121.618000,29.61
5.634465,2.514000,1.593000,-0.262000,152.076000,-12.504000,108.718000,29.57
5.644500,2.690000,1.187000,0.683000,8.000000,128.565000,100.992000,29.57
5.654581,2.831000,1.849000,-0.315000,151.893000,-49.954000,62.260000,29.42
5.664551,2.771000,1.839000,0.029000,41.603000,36.275000,34.931000,29.47
5.674289,2.178000,1.593000,0.076000,24.489000,3.832000,23.786000,29.47
5.684515,3.096000,2.100000,0.312000,-99.878000,77.832000,-16.641000,29.47
5.694518,-0.179000,1.037000,-0.552000,-103.924000,67.038000,-21.191000,29.42
5.704542,1.046000,-0.367000,-3.529000,-95.786000,27.618000,-7.298000,29.52
5.714433,-1.734000,-1.366000,-1.716000,-57.847000,-78.092000,-11.191000,29.57
5.724448,-1.193000,0.030000,-0.208000,-36.901000,-7.969000,-69.069000,29.57
5.734718,0.197000,-0.152000,-0.477000,-59.679000,124.718000,-117.053000,29.57
5.744537,1.090000,0.168000,-1.472000,-20.336000,170.290000,-106.718000,29.52
5.754598,0.875000,-0.343000,-1.951000,-44.397000,210.947000,-100.931000,29.42
5.764424,0.553000,-0.264000,-1.700000,-25.573000,160.092000,-101.863000,29.47
5.774573,0.487000,-0.294000,-1.339000,0.641000,109.237000,-93.450000,29.57
5.784412,0.616000,-0.484000,-1.311000,12.244000,93.985000,-84.916000,29.61
5.794433,0.561000,-0.643000,-0.934000,14.153000,64.275000,-76.214000,29.52
5.804465,0.960000,-1.125000,-0.914000,-13.603000,62.427000,-63.053000,29.57
5.814552,0.941000,-0.951000,-0.799000,-27.237000,81.863000,-49.298000,29.47
5.824437,0.770000,-0.718000,-1.048000,-31.573000,67.634000,-39.954000,29.61
5.834475,0.685000,-0.633000,-0.953000,-30.748000,30.473000,-30.061000,29.52
5.844543,0.564000,-0.734000,-0.792000,-40.458000,14.840000,-21.450000,29.47
5.854578,0.350000,-0.625000,-0.684000,-44.366000,9.740000,-19.252000,29.47
5.864373,0.209000,-0.515000,-0.720000,-47.008000,19.435000,-23.985000,29.52
5.874444,0.185000,-0.401000,-0.730000,-52.458000,31.450000,-29.344000,29.57
5.884468,0.125000,-0.333000,-0.579000,-69.802000,35.817000,-34.458000,29.47
5.894504,0.211000,-0.462000,-0.629000,-92.473000,36.901000,-39.908000,29.47
5.904519,0.491000,-0.514000,-0.911000,-109.939000,50.733000,-39.481000,29.52
5.914529,0.544000,-0.399000,-1.008000,-105.557000,58.443000,-33.588000,29.52
5.924183,0.414000,-0.485000,-0.912000,-91.450000,36.198000,-31.145000,29.47
5.934253,0.549000,-0.636000,-0.981000,-75.145000,31.084000,-30.580000,29.47
5.944560,0.558000,-0.410000,-0.961000,-66.366000,23.496000,-26.000000,29.42
5.954461,0.429000,-0.410000,-0.822000,-60.092000,11.893000,-24.427000,29.52
5.964614,0.424000,-0.483000,-0.814000,-61.817000,11.588000,-25.481000,29.57
5.974448,0.420000,-0.441000,-0.764000,-67.603000,9.069000,-26.473000,29.57
5.984469,0.400000,-0.397000,-0.774000,-75.893000,7.252000,-29.817000,29.52
5.994448,0.420000,-0.398000,-0.806000,-85.863000,13.435000,-32.672000,29.52
6.004524,0.409000,-0.364000,-0.857000,-92.748000,16.931000,-36.702000,29.52
6.014594,0.453000,-0.197000,-0.975000,-84.260000,12.702000,-36.702000,29.66
6.024449,0.421000,-0.370000,-0.914000,-81.863000,16.672000,-40.076000,29.47
6.034482,0.454000,-0.348000,-0.870000,-76.641000,2.718000,-40.122000,29.61
6.044483,0.447000,-0.247000,-0.921000,-67.374000,9.878000,-41.511000,29.52
6.054477,0.454000,-0.232000,-0.947000,-56.718000,-5.649000,-41.435000,29.47
6.064355,0.351000,-0.269000,-0.838000,-62.107000,14.046000,-38.412000,29.47
6.074428,0.413000,-0.199000,-0.888000,-55.985000,15.298000,-37.023000,29.52
6.084317,0.433000,-0.256000,-0.901000,-44.168000,13.237000,-36.046000,29.38
6.094499,0.406000,-0.230000,-0.908000,-39.115000,18.473000,-36.153000,29.47
6.104429,0.273000,-0.098000,-0.945000,-36.672000,21.771000,-42.595000,29.47
6.114515,0.418000,-0.365000,-1.006000,-35.115000,26.443000,-40.366000,29.42
6.124361,0.476000,-0.348000,-0.853000,-34.901000,52.824000,-44.290000,29.52
6.134389,0.394000,-0.429000,-0.830000,-49.603000,69.756000,-45.130000,29.47
6.144477,0.439000,-0.296000,-0.880000,-52.092000,87.939000,-51.405000,29.47
6.154439,0.408000,-0.161000,-0.885000,-60.153000,109.359000,-49.969000,29.52
6.164170,0.620000,-0.115000,-0.882000,-56.687000,139.786000,-47.130000,29.52
6.174148,0.457000,-0.124000,-0.825000,-62.382000,159.115000,-44.198000,29.57
6.184064,0.349000,-0.045000,-0.882000,-60.412000,179.237000,-52.061000,29.57
6.194143,0.375000,0.013000,-0.837000,-64.763000,198.275000,-54.366000,29.52
6.204086,0.459000,0.019000,-0.852000,-49.908000,201.924000,-50.198000,29.42
6.214145,0.371000,-0.028000,-0.846000,-50.290000,230.198000,-51.740000,29.38
6.224046,0.387000,-0.103000,-0.892000,-58.550000,250.489000,-62.824000,29.47
6.233954,0.496000,-0.190000,-0.849000,-68.565000,298.885000,-78.702000,29.42
6.243960,0.555000,-0.225000,-1.037000,-70.565000,290.107000,-105.053000,29.52
6.253963,1.310000,-0.300000,-0.870000,-52.534000,287.542000,3.756000,29.47
6.263906,0.978000,-0.374000,-0.874000,-82.992000,312.916000,-1.374000,29.47
6.273920,1.052000,-0.333000,-1.733000,-40.855000,376.153000,-78.336000,29.42
6.283962,1.735000,-0.676000,-2.060000,35.710000,382.046000,-115.298000,29.42
6.293923,1.933000,-0.471000,-2.243000,71.420000,355.527000,-173.863000,29.57
6.303918,1.520000,-0.189000,-2.008000,26.504000,377.786000,-245.603000,29.57
6.313954,1.371000,-0.494000,-2.352000,-71.924000,433.557000,-329.573000,29.38
6.323979,0.999000,-0.572000,-3.161000,-34.198000,307.405000,-194.427000,29.52
6.333968,0.825000,-1.248000,-2.531000,0.290000,176.534000,-143.466000,29.42
6.343957,0.791000,-4.000000,-3.499000,27.176000,106.565000,-51.359000,29.57
6.353954,1.192000,-2.646000,-3.543000,-97.573000,-226.992000,14.901000,29.47
6.364033,-1.220000,-1.971000,-0.575000,-108.840000,-329.832000,38.656000,29.52
6.374114,-0.711000,-1.153000,-0.984000,-112.824000,-279.237000,44.000000,29.52
6.384029,-0.448000,-1.008000,-1.202000,-77.282000,-237.496000,44.748000,29.57
6.394068,-0.395000,-1.175000,-1.320000,-36.092000,-236.107000,43.359000,29.47
6.404065,-0.193000,-1.146000,-1.146000,-37.023000,-183.802000,28.290000,29.42
6.414138,-0.155000,-0.927000,-1.135000,-29.420000,-234.000000,15.679000,29.52
6.424183,-0.089000,-0.638000,-1.037000,-13.313000,-259.450000,-3.893000,29.57
6.434167,0.100000,-0.447000,-1.093000,28.198000,-286.595000,-17.527000,29.57
6.444177,0.386000,-0.424000,-1.121000,76.977000,-301.847000,-26.748000,29.52
6.454239,0.596000,-0.626000,-1.052000,109.359000,-301.939000,-27.206000,29.47
6.464421,0.742000,-0.798000,-0.970000,131.191000,-305.588000,-18.870000,29.47
6.474258,0.955000,-0.841000,-0.933000,138.855000,-296.458000,-0.687000,29.47
6.484255,0.998000,-0.872000,-0.884000,142.489000,-296.473000,22.534000,29.42
6.494345,1.003000,-0.795000,-0.986000,151.511000,-289.221000,44.519000,29.42
6.504376,1.086000,-0.664000,-1.079000,171.389000,-279.771000,65.496000,29.57
6.514258,1.122000,-0.542000,-1.135000,195.954000,-255.985000,82.855000,29.47
6.524467,1.167000,-0.467000,-1.103000,218.321000,-236.489000,96.534000,29.52
6.534341,1.268000,-0.450000,-1.033000,226.168000,-209.496000,107.450000,29.52
6.544426,1.359000,-0.483000,-1.094000,219.282000,-183.969000,120.489000,29.47
6.554468,1.438000,-0.384000,-1.135000,214.672000,-168.244000,139.649000,29.47
6.564446,1.529000,-0.247000,-1.413000,219.008000,-145.649000,156.336000,29.42
6.574284,1.803000,-0.099000,-1.716000,223.847000,-125.267000,173.328000,29.42
6.584460,2.021000,0.070000,-1.803000,221.969000,-94.504000,186.840000,29.38
6.594444,2.161000,0.445000,-1.698000,219.511000,-111.969000,193.618000,29.38
6.604506,2.198000,0.786000,-1.645000,211.099000,-129.282000,191.023000,29.52
6.614457,2.308000,1.100000,-1.621000,218.000000,-154.382000,177.603000,29.42
6.624419,2.339000,1.329000,-1.391000,224.244000,-145.969000,159.359000,29.47
6.634500,2.484000,1.471000,-1.078000,223.649000,-119.817000,143.160000,29.38
6.644338,2.678000,1.566000,-0.683000,205.176000,-91.893000,127.817000,29.42
6.654409,2.778000,1.642000,-0.215000,169.374000,-79.649000,108.763000,29.52
6.664432,2.764000,1.733000,0.031000,136.076000,-60.672000,84.061000,29.47
6.674214,2.748000,1.972000,0.245000,99.847000,-37.221000,60.382000,29.38
6.684214,2.744000,2.038000,0.387000,72.321000,-0.290000,43.405000,29.52
6.694434,2.690000,1.764000,0.377000,46.870000,46.763000,35.878000,29.42
6.704313,2.593000,1.443000,0.305000,-4.489000,67.481000,40.382000,29.38
6.714406,3.484000,1.239000,0.730000,-143.557000,144.046000,32.977000,29.57
6.724380,-0.432000,-0.141000,-1.074000,-90.214000,107.496000,36.779000,29.42
6.734231,0.361000,-1.085000,-3.146000,-91.649000,9.221000,22.641000,29.42
6.744435,-1.613000,-0.708000,-1.063000,-127.817000,50.351000,4.397000,29.47
6.754476,-1.096000,0.926000,-0.476000,-109.099000,47.863000,-57.771000,29.47
6.764431,-0.337000,1.182000,-0.065000,-98.916000,98.198000,-117.084000,29.52
6.774498,0.953000,0.247000,-2.252000,-40.458000,237.588000,-135.832000,29.42
6.784405,1.087000,0.040000,-2.221000,-21.084000,166.351000,-114.427000,29.38
6.794436,0.694000,-0.071000,-1.784000,-10.168000,138.092000,-119.802000,29.38
6.804438,1.201000,-0.552000,-1.829000,-3.313000,130.855000,-108.794000,29.42
6.814356,1.134000,-0.757000,-1.267000,-7.328000,58.840000,-71.176000,29.42
6.824405,0.528000,-0.448000,-0.953000,-10.519000,47.710000,-56.412000,29.38
6.834475,0.725000,-0.649000,-0.948000,-22.733000,36.229000,-45.725000,29.47
6.844506,0.809000,-0.762000,-0.727000,-36.397000,36.519000,-37.939000,29.52
6.854368,0.847000,-0.866000,-0.780000,-44.397000,36.458000,-27.450000,29.52
6.864253,0.566000,-0.663000,-0.750000,-50.550000,28.412000,-27.496000,29.47
6.874289,0.431000,-0.553000,-0.707000,-64.733000,7.908000,-27.847000,29.47
6.884260,0.289000,-0.500000,-0.577000,-89.282000,-12.305000,-27.863000,29.42
6.894243,0.230000,-0.505000,-0.504000,-125.328000,-19.969000,-31.450000,29.42
6.904187,0.340000,-0.565000,-0.666000,-148.809000,-13.527000,-38.794000,29.47
6.914081,0.472000,-0.532000,-1.016000,-145.145000,15.344000,-42.473000,29.47
6.924152,0.475000,-0.220000,-1.180000,-129.969000,14.794000,-38.519000,29.52
6.934146,0.412000,-0.251000,-1.130000,-111.282000,6.412000,-36.809000,29.42
6.944136,0.370000,-0.380000,-0.885000,-99.908000,-4.565000,-35.176000,29.47
6.954175,0.469000,-0.393000,-0.875000,-94.244000,-17.496000,-36.702000,29.38
6.964217,0.499000,-0.189000,-1.130000,-89.405000,-0.809000,-38.046000,29.52
6.974221,0.456000,-0.390000,-0.792000,-85.298000,3.405000,-41.069000,29.52
6.984308,0.410000,-0.288000,-0.859000,-92.870000,11.450000,-44.794000,29.47
6.994248,0.419000,-0.160000,-0.986000,-79.130000,-4.290000,-45.359000,29.47
7.004222,0.473000,-0.191000,-0.992000,-73.511000,3.450000,-44.458000,29.42
7.014353,0.443000,-0.180000,-1.112000,-65.511000,-1.664000,-41.359000,29.52
7.024427,0.436000,-0.088000,-0.982000,-59.573000,8.290000,-38.809000,29.47
7.034146,0.434000,-0.095000,-0.981000,-48.931000,12.107000,-35.359000,29.47
7.044174,0.420000,-0.111000,-0.952000,-40.977000,18.137000,-32.443000,29.42
7.054214,0.357000,-0.181000,-0.895000,-34.794000,22.137000,-26.870000,29.42
7.064550,0.419000,-0.103000,-0.927000,-30.977000,25.496000,-25.206000,29.47
7.074552,0.419000,-0.124000,-0.931000,-28.763000,31.252000,-23.710000,29.47
7.084451,0.402000,-0.106000,-0.885000,-22.611000,32.672000,-24.427000,29.42
7.094556,0.457000,-0.219000,-0.979000,1.267000,23.740000,-28.321000,29.42
7.104479,0.380000,0.057000,-0.959000,-20.962000,40.519000,-27.405000,29.47
7.114591,0.406000,-0.231000,-0.816000,-28.092000,42.977000,-25.099000,29.38
7.124637,0.406000,-0.139000,-0.893000,-28.290000,58.626000,-25.115000,29.52
7.134566,0.407000,-0.174000,-0.912000,-30.305000,64.046000,-22.977000,29.52
7.144724,0.429000,-0.201000,-0.857000,-37.634000,85.176000,-24.885000,29.47
7.154622,0.459000,-0.196000,-0.880000,-46.473000,97.191000,-24.122000,29.38
7.164686,0.412000,-0.135000,-0.942000,-44.779000,101.924000,-28.550000,29.52
7.174642,0.408000,-0.035000,-0.865000,-63.282000,135.695000,-26.122000,29.42
7.184600,0.324000,0.008000,-0.873000,-72.763000,168.611000,-31.695000,29.47
7.194721,0.344000,-0.023000,-0.870000,-74.718000,188.595000,-33.924000,29.38
7.204638,0.416000,-0.014000,-0.923000,-75.130000,204.611000,-36.901000,29.42
7.214648,0.352000,-0.031000,-0.916000,-59.191000,214.153000,-42.366000,29.52
7.224677,0.385000,-0.077000,-0.888000,-59.206000,234.458000,-56.718000,29.38
7.234738,0.536000,-0.113000,-0.867000,-70.565000,258.489000,-74.977000,29.38
7.244515,0.531000,-0.259000,-0.880000,-62.107000,273.985000,-90.504000,29.52
7.254646,1.133000,-0.298000,-1.063000,-1.939000,185.786000,-24.260000,29.33
7.264522,1.176000,-0.497000,-1.026000,5.756000,270.794000,9.893000,29.47
7.274671,0.856000,-0.605000,-1.640000,-19.053000,274.992000,-77.557000,29.38
7.284486,1.216000,-0.588000,-1.884000,-69.527000,415.863000,-132.107000,29.42
7.294502,1.787000,-0.461000,-2.521000,-66.733000,419.527000,-188.687000,29.52
7.304703,1.745000,-0.527000,-2.330000,-100.931000,460.168000,-245.618000,29.47
7.314677,1.970000,-0.441000,-3.093000,-83.939000,397.542000,-267.420000,29.47
7.324523,-0.229000,-2.372000,-3.719000,32.153000,127.099000,-155.695000,29.52
7.334455,1.861000,-4.000000,-3.162000,8.198000,7.557000,-36.611000,29.42
7.344683,0.606000,-3.605000,-3.925000,-85.573000,-241.908000,24.473000,29.57
7.354729,-0.624000,-2.259000,-0.982000,-164.733000,-244.611000,57.069000,29.38
7.364534,-0.605000,-1.137000,-1.694000,-143.664000,-329.740000,51.573000,29.47
7.374506,-0.833000,-0.747000,-1.805000,-77.893000,-288.916000,36.015000,29.42
7.384344,-0.696000,-0.831000,-1.401000,-2.916000,-295.008000,2.458000,29.42
7.394577,-0.564000,-0.963000,-0.575000,27.542000,-244.137000,-20.977000,29.38
7.404709,-0.398000,-0.942000,-0.232000,47.038000,-229.756000,-31.832000,29.57
7.414482,-0.082000,-0.904000,-0.403000,65.130000,-197.328000,-25.832000,29.42
7.424510,0.170000,-0.966000,-0.618000,93.588000,-160.321000,-7.740000,29.52
7.434473,0.364000,-1.038000,-0.743000,118.229000,-148.977000,20.122000,29.47
7.444485,0.445000,-1.051000,-0.735000,129.115000,-146.351000,50.168000,29.38
7.454553,0.469000,-0.945000,-0.806000,134.641000,-148.046000,77.924000,29.42
7.464546,0.542000,-0.792000,-1.059000,143.679000,-151.435000,101.511000,29.47
7.474440,0.621000,-0.651000,-1.275000,153.847000,-157.634000,121.328000,29.47
7.484494,0.644000,-0.503000,-1.299000,160.061000,-164.763000,136.397000,29.38
7.494519,0.655000,-0.260000,-1.289000,165.847000,-169.450000,144.641000,29.42
7.504583,0.660000,0.012000,-1.312000,174.504000,-176.351000,144.321000,29.42
7.514485,0.577000,0.300000,-1.420000,187.084000,-174.244000,133.863000,29.38
7.524399,0.521000,0.437000,-1.590000,198.840000,-175.634000,115.130000,29.47
7.537020,0.597000,0.416000,-1.887000,210.290000,-189.176000,88.916000,29.42
7.544198,0.844000,0.350000,-2.028000,214.153000,-191.786000,60.504000,29.52
7.557400,1.175000,0.276000,-2.039000,226.779000,-209.099000,37.527000,29.47
7.563975,1.525000,0.129000,-1.819000,239.664000,-213.618000,24.153000,29.57
7.573924,1.871000,-0.101000,-1.515000,243.069000,-209.374000,32.397000,29.42
7.583976,2.138000,-0.039000,-1.303000,232.427000,-191.359000,63.008000,29.52
7.593966,2.144000,0.080000,-1.117000,213.695000,-177.221000,94.885000,29.57
7.603981,2.033000,0.481000,-1.115000,199.542000,-152.198000,117.679000,29.47
7.614032,2.056000,0.952000,-1.229000,185.221000,-129.435000,125.542000,29.42
7.624195,2.003000,1.293000,-1.308000,170.794000,-109.588000,117.206000,29.47
7.634006,2.045000,1.486000,-1.248000,153.023000,-110.641000,104.290000,29.47
7.644043,2.184000,1.528000,-0.965000,123.466000,-109.389000,92.214000,29.47
7.653996,2.278000,1.542000,-0.630000,103.985000,-97.298000,84.183000,29.52
7.664045,2.365000,1.535000,-0.240000,76.183000,-63.618000,80.687000,29.42
7.674158,2.423000,1.541000,0.018000,47.634000,-28.687000,80.611000,29.47
7.684127,2.072000,2.112000,0.713000,56.031000,-23.374000,59.420000,29.47
7.694184,2.494000,1.483000,0.090000,69.267000,-12.626000,88.397000,29.52
7.704279,3.256000,1.578000,-0.282000,-28.275000,141.664000,80.687000,29.42
7.714163,2.161000,1.867000,0.489000,-94.519000,159.527000,50.504000,29.47
7.724264,0.220000,0.323000,-1.785000,-71.878000,153.924000,46.046000,29.47
7.734380,0.144000,-0.276000,-2.950000,-95.176000,80.718000,10.992000,29.42
7.744358,-1.251000,-0.161000,-1.475000,-53.389000,-59.450000,-27.023000,29.52
7.754385,-1.295000,-0.206000,-0.590000,-36.748000,91.359000,-100.153000,29.57
7.764486,0.270000,0.124000,-0.629000,-47.725000,147.374000,-103.802000,29.38
7.774472,0.991000,-0.271000,-1.260000,-32.366000,129.664000,-76.137000,29.42
7.784436,0.559000,-0.147000,-1.628000,-28.168000,126.412000,-75.679000,29.38
7.794343,0.265000,-0.004000,-1.465000,-29.389000,135.466000,-89.649000,29.47
7.804354,0.423000,-0.042000,-1.427000,-0.840000,104.565000,-89.893000,29.47
7.814457,0.590000,-0.289000,-1.252000,15.099000,85.405000,-78.275000,29.42
7.824337,0.734000,-0.629000,-1.087000,10.061000,51.557000,-71.221000,29.52
7.834458,0.775000,-0.828000,-0.798000,-7.496000,53.267000,-58.718000,29.38
7.844507,0.779000,-0.740000,-0.939000,-30.412000,56.672000,-49.756000,29.47
7.854545,0.681000,-0.606000,-0.825000,-44.382000,46.107000,-38.641000,29.42
7.864473,0.605000,-0.655000,-0.703000,-62.412000,28.214000,-32.885000,29.42
7.874493,0.463000,-0.664000,-0.581000,-84.015000,6.656000,-28.076000,29.47
7.884306,0.364000,-0.644000,-0.643000,-116.168000,0.229000,-30.947000,29.38
7.894450,0.445000,-0.617000,-0.780000,-140.550000,7.008000,-34.458000,29.42
7.904592,0.375000,-0.605000,-0.976000,-134.534000,14.870000,-37.649000,29.42
7.914377,0.370000,-0.360000,-1.044000,-125.786000,16.870000,-38.794000,29.47
7.924362,0.442000,-0.256000,-1.158000,-112.168000,23.237000,-38.229000,29.57
7.934463,0.400000,-0.217000,-1.064000,-91.252000,11.267000,-34.733000,29.33
7.944546,0.424000,-0.371000,-0.970000,-75.344000,8.641000,-33.878000,29.47
7.954490,0.481000,-0.354000,-0.883000,-69.313000,7.344000,-33.038000,29.38
7.964387,0.508000,-0.311000,-1.026000,-66.321000,13.832000,-33.466000,29.47
7.974545,0.454000,-0.371000,-0.798000,-66.718000,16.534000,-35.588000,29.42
7.984441,0.457000,-0.388000,-0.827000,-81.969000,26.061000,-34.580000,29.52
7.994507,0.465000,-0.331000,-0.830000,-76.473000,7.099000,-38.718000,29.47
8.004570,0.435000,-0.190000,-0.966000,-71.374000,-8.519000,-40.122000,29.47
8.014518,0.464000,-0.179000,-0.927000,-69.237000,-7.466000,-40.092000,29.42
8.024405,0.409000,-0.184000,-0.921000,-66.992000,-8.458000,-39.206000,29.42
8.034531,0.383000,-0.150000,-0.918000,-59.863000,-5.649000,-37.664000,29.47
8.044596,0.367000,-0.119000,-0.922000,-47.099000,2.260000,-33.771000,29.47
8.054484,0.361000,-0.082000,-0.939000,-40.046000,12.473000,-31.130000,29.52
8.064471,0.377000,-0.115000,-0.909000,-38.214000,20.473000,-27.802000,29.42
8.074439,0.379000,-0.121000,-0.930000,-32.458000,27.053000,-23.557000,29.47
8.084434,0.400000,-0.135000,-0.898000,-23.634000,25.710000,-21.756000,29.47
8.094865,0.413000,-0.154000,-0.904000,-19.450000,27.374000,-21.435000,29.42
8.104611,0.412000,-0.132000,-0.924000,-14.214000,19.374000,-22.656000,29.38
8.114710,0.443000,-0.522000,-0.744000,0.076000,19.817000,-30.153000,29.47
8.124594,0.365000,0.003000,-0.946000,-30.809000,41.405000,-29.252000,29.47
8.134645,0.406000,-0.294000,-0.853000,-29.710000,43.954000,-29.130000,29.42
8.144692,0.398000,-0.202000,-0.841000,-37.939000,53.359000,-32.061000,29.42
8.154651,0.453000,-0.216000,-0.871000,-45.038000,64.015000,-28.366000,29.47
8.164657,0.405000,-0.170000,-0.964000,-34.275000,60.641000,-30.824000,29.47
8.174372,0.428000,-0.143000,-0.896000,-54.489000,90.382000,-30.397000,29.52
8.184588,0.423000,-0.115000,-0.929000,-55.023000,109.634000,-32.244000,29.52
8.194539,0.423000,-0.048000,-0.880000,-62.611000,126.779000,-30.534000,29.47
8.204506,0.331000,0.022000,-0.896000,-66.092000,155.282000,-37.160000,29.47
8.214469,0.311000,-0.002000,-0.869000,-72.718000,181.908000,-40.458000,29.42
8.224559,0.372000,0.006000,-0.934000,-74.214000,200.565000,-42.260000,29.42
8.234416,0.358000,-0.019000,-0.930000,-66.473000,210.748000,-44.229000,29.47
8.244432,0.424000,-0.097000,-0.974000,-63.115000,234.229000,-58.809000,29.47
8.254624,0.347000,-0.267000,-0.899000,-70.885000,243.191000,-80.046000,29.42
8.264558,0.522000,-0.243000,-0.921000,-75.725000,273.618000,-112.931000,29.33
8.274424,0.926000,-0.258000,-0.995000,-48.840000,246.458000,-63.710000,29.47
8.284369,1.083000,-0.524000,-1.124000,-90.992000,281.863000,-61.908000,29.38
8.294234,0.990000,-0.525000,-1.668000,-111.557000,283.542000,-126.565000,29.42
8.304157,1.340000,-0.561000,-1.932000,-117.511000,326.489000,-184.214000,29.52
8.314151,1.784000,-0.728000,-2.441000,-145.420000,390.198000,-228.214000,29.38
8.324196,1.841000,-0.598000,-2.218000,-183.832000,396.183000,-281.573000,29.47
8.334164,1.591000,-0.760000,-2.387000,-170.107000,330.229000,-280.061000,29.42
8.344121,0.479000,-1.098000,-2.803000,-119.618000,192.275000,-194.748000,29.52
8.354120,0.258000,-4.000000,-4.000000,16.412000,66.656000,4.336000,29.47
8.364221,0.969000,-3.660000,-4.000000,-8.519000,-169.252000,114.412000,29.47
8.374402,-1.161000,-2.567000,-1.150000,-55.084000,-315.588000,164.046000,29.47
8.384281,-0.763000,-1.678000,-1.184000,-81.786000,-283.481000,168.855000,29.52
8.394216,-0.892000,-1.077000,-1.415000,-72.901000,-224.366000,182.107000,29.52
8.404399,-0.759000,-0.808000,-1.754000,-29.313000,-203.191000,168.076000,29.38
8.414502,-0.578000,-0.747000,-1.577000,-12.947000,-156.412000,136.458000,29.47
8.424537,-0.373000,-0.739000,-1.400000,13.130000,-224.870000,103.954000,29.42
8.434543,-0.088000,-0.539000,-1.195000,16.214000,-258.656000,71.985000,29.42
8.444574,0.208000,-0.400000,-1.200000,37.084000,-293.160000,51.130000,29.47
8.454410,0.484000,-0.377000,-1.250000,68.687000,-309.969000,36.962000,29.47
8.464488,0.659000,-0.454000,-1.166000,98.305000,-308.153000,28.519000,29.33
8.474513,0.718000,-0.541000,-1.093000,124.489000,-305.939000,27.588000,29.38
8.484519,0.814000,-0.536000,-1.002000,141.664000,-292.489000,27.924000,29.38
8.494477,0.960000,-0.584000,-1.039000,152.718000,-270.977000,33.634000,29.47
8.504561,1.088000,-0.564000,-1.127000,161.924000,-248.763000,42.031000,29.52
8.514438,1.151000,-0.526000,-1.234000,174.611000,-228.321000,52.504000,29.42
8.524615,1.163000,-0.418000,-1.323000,187.282000,-214.519000,60.931000,29.47
8.534095,1.169000,-0.371000,-1.321000,195.695000,-207.771000,65.710000,29.47
8.544067,1.204000,-0.277000,-1.273000,209.328000,-210.611000,66.977000,29.42
8.554175,1.182000,-0.314000,-1.287000,204.916000,-189.679000,70.702000,29.42
8.563891,1.209000,-0.241000,-1.288000,206.702000,-171.588000,80.260000,29.38
8.574260,1.271000,-0.164000,-1.358000,213.985000,-150.031000,91.176000,29.47
8.583918,1.345000,-0.023000,-1.439000,216.489000,-130.718000,99.176000,29.42
8.593882,1.391000,0.068000,-1.496000,222.656000,-118.214000,110.137000,29.42
8.603902,1.962000,0.128000,-1.482000,206.168000,-76.672000,116.336000,29.47
8.613910,1.665000,0.564000,-1.061000,207.527000,-47.618000,121.725000,29.38
8.624383,1.864000,0.841000,-1.949000,215.542000,-80.305000,115.573000,29.42
8.636221,2.024000,1.163000,-1.922000,256.076000,-90.550000,113.511000,29.42
8.643961,1.956000,1.236000,-1.241000,277.725000,-81.634000,100.809000,29.47
8.653998,2.301000,1.333000,-0.689000,259.893000,-68.321000,94.611000,29.47
8.664296,2.451000,1.358000,-0.348000,234.061000,-67.115000,90.366000,29.52
8.674624,2.472000,1.584000,-0.087000,177.130000,-25.740000,75.237000,29.52
8.686514,2.514000,1.791000,-0.029000,109.832000,7.649000,63.328000,29.38
8.694015,2.355000,1.970000,-0.398000,136.061000,7.191000,40.092000,29.38
8.704387,2.388000,1.618000,-0.858000,121.115000,-3.771000,20.397000,29.47
8.714492,2.255000,1.768000,0.420000,6.824000,95.740000,19.023000,29.42
8.727250,3.366000,0.541000,0.154000,-124.412000,58.809000,36.382000,29.42
8.734780,0.168000,1.729000,-0.312000,-174.458000,24.916000,15.557000,29.47
8.745320,1.104000,-0.717000,-2.908000,-107.344000,96.458000,52.779000,29.47
8.754274,-0.755000,-1.731000,-1.712000,-139.069000,2.962000,64.733000,29.52
8.764242,-1.330000,0.126000,-0.150000,-115.435000,-15.115000,17.084000,29.52
8.774829,-0.741000,1.181000,-0.371000,-115.695000,54.076000,-67.969000,29.38
8.786397,0.117000,0.909000,-1.641000,-90.962000,177.618000,-116.687000,29.38
8.795656,0.963000,0.499000,-2.849000,-52.244000,102.641000,-98.702000,29.52
8.804720,0.515000,0.148000,-1.694000,-50.885000,152.305000,-112.366000,29.42
8.814904,0.583000,-0.472000,-1.302000,-11.435000,104.885000,-102.779000,29.47
8.824778,0.735000,-0.636000,-1.232000,1.954000,97.496000,-84.504000,29.47
8.836125,0.460000,-0.343000,-1.058000,6.275000,76.870000,-75.420000,29.52
8.844256,0.651000,-0.460000,-1.220000,-0.794000,35.374000,-70.550000,29.47
8.854398,0.796000,-0.697000,-0.837000,-18.153000,49.282000,-60.809000,29.47
8.866978,1.001000,-1.017000,-0.896000,-29.847000,38.153000,-45.939000,29.47
8.874770,0.819000,-0.822000,-0.802000,-36.427000,24.107000,-30.489000,29.33
8.884564,0.522000,-0.561000,-0.883000,-46.550000,3.725000,-26.901000,29.33
8.894571,0.474000,-0.539000,-0.821000,-59.603000,-19.924000,-23.649000,29.47
8.904851,0.386000,-0.538000,-0.753000,-70.351000,-26.748000,-20.565000,29.47
8.914647,0.208000,-0.379000,-0.686000,-81.008000,-32.366000,-20.611000,29.52
8.924813,0.058000,-0.290000,-0.517000,-99.786000,-29.344000,-25.466000,29.42
8.934717,0.062000,-0.399000,-0.433000,-131.664000,-13.893000,-31.573000,29.47
8.944766,0.223000,-0.685000,-0.761000,-151.084000,16.076000,-38.000000,29.47
8.954649,0.514000,-0.493000,-1.026000,-146.122000,24.397000,-39.557000,29.52
8.967104,0.442000,-0.294000,-1.172000,-131.176000,28.595000,-40.321000,29.42
8.974445,0.512000,-0.404000,-1.049000,-113.542000,28.794000,-38.962000,29.47
8.985352,0.427000,-0.406000,-0.922000,-103.740000,18.809000,-39.160000,29.38
8.994666,0.424000,-0.435000,-1.038000,-103.252000,4.550000,-39.985000,29.42
9.008348,0.394000,-0.180000,-1.043000,-89.389000,-12.947000,-40.412000,29.52
9.018495,0.429000,-0.385000,-0.824000,-92.015000,-3.985000,-42.321000,29.47
9.024648,0.359000,-0.026000,-1.001000,-101.389000,4.351000,-37.160000,29.38
9.034462,0.555000,-0.252000,-0.879000,-88.565000,11.771000,-39.985000,29.42
9.044298,0.368000,-0.058000,-1.011000,-70.504000,9.466000,-38.214000,29.52
9.054317,0.354000,-0.149000,-0.847000,-83.298000,25.557000,-35.008000,29.47
9.064363,0.378000,-0.081000,-0.987000,-56.397000,24.458000,-33.771000,29.38
9.074289,0.417000,-0.092000,-1.002000,-43.969000,12.931000,-28.489000,29.52
9.084257,0.412000,-0.097000,-0.949000,-35.527000,12.443000,-25.267000,29.42
9.094352,0.391000,-0.081000,-0.956000,-25.939000,16.718000,-22.794000,29.47
9.104400,0.388000,-0.112000,-0.916000,-19.298000,26.321000,-20.137000,29.47
9.114244,0.376000,-0.087000,-0.917000,-17.099000,33.008000,-18.534000,29.42
9.124327,0.413000,-0.156000,-0.913000,-16.947000,33.282000,-17.802000,29.52
9.134479,0.392000,-0.153000,-0.894000,-13.328000,38.290000,-20.336000,29.57
9.144318,0.318000,0.055000,-1.096000,5.969000,27.084000,-33.099000,29.47
9.154401,0.299000,-0.167000,-0.852000,-26.290000,50.198000,-29.435000,29.38
9.164376,0.411000,-0.300000,-0.860000,-28.061000,60.351000,-31.985000,29.42
9.174277,0.428000,-0.194000,-0.919000,-38.733000,63.252000,-30.000000,29.42
9.184413,0.366000,-0.129000,-0.952000,-31.756000,75.206000,-31.237000,29.47
9.194462,0.461000,-0.159000,-0.945000,-31.496000,78.427000,-26.565000,29.47
9.204588,0.406000,-0.025000,-0.959000,-44.779000,117.176000,-28.366000,29.42
9.214434,0.409000,-0.053000,-0.909000,-38.366000,139.664000,-23.649000,29.47
9.224358,0.346000,-0.002000,-0.855000,-22.550000,155.481000,-30.427000,29.47
9.234430,0.403000,0.058000,-0.953000,-15.496000,182.412000,-32.977000,29.47
9.244462,0.356000,0.062000,-0.939000,-6.092000,175.405000,-30.397000,29.42
9.254567,0.398000,-0.005000,-0.922000,-6.183000,189.221000,-29.527000,29.42
9.264460,0.347000,-0.153000,-0.859000,-15.832000,209.115000,-39.420000,29.47
9.274381,0.466000,-0.204000,-0.866000,-27.725000,233.985000,-58.977000,29.38
9.284478,0.385000,-0.315000,-0.845000,-37.878000,261.115000,-84.595000,29.42
9.294531,0.917000,-0.389000,-0.767000,-23.023000,211.191000,-34.336000,29.42
9.304687,0.835000,-0.289000,-1.066000,-74.550000,197.908000,-16.809000,29.47
9.314613,0.656000,-0.370000,-1.070000,-127.908000,238.580000,-64.137000,29.47
9.324516,1.043000,-0.651000,-1.733000,-122.656000,292.962000,-127.176000,29.33
9.334543,1.313000,-0.627000,-1.742000,-149.954000,324.107000,-169.359000,29.42
9.344662,1.771000,-0.585000,-2.676000,-157.878000,377.618000,-216.809000,29.47
9.354674,1.845000,-0.617000,-2.288000,-144.763000,389.771000,-268.092000,29.38
9.364599,1.401000,-0.668000,-2.835000,-109.893000,345.832000,-268.427000,29.38
9.374661,0.044000,-1.900000,-4.000000,1.344000,77.924000,-172.947000,29.52
9.384431,0.297000,-2.387000,-3.202000,2.687000,-77.603000,-150.901000,29.42
9.394565,-0.287000,-2.258000,-1.560000,-52.000000,-278.305000,-123.786000,29.47
9.404742,-0.239000,-2.333000,-1.156000,-112.427000,-228.000000,-58.733000,29.47
9.414607,0.045000,-1.988000,-1.459000,-116.962000,-223.695000,-3.588000,29.42
9.424517,-0.279000,-1.675000,-1.207000,-64.901000,-181.344000,28.504000,29.47
9.434574,-0.211000,-1.592000,-1.133000,-7.863000,-235.481000,72.061000,29.38
9.444693,-0.125000,-1.445000,-0.568000,3.710000,-196.061000,93.176000,29.38
9.454680,-0.049000,-1.207000,-0.502000,20.137000,-191.267000,116.122000,29.33
9.464615,0.094000,-0.951000,-0.604000,41.939000,-167.756000,130.137000,29.42
9.474555,0.265000,-0.745000,-0.839000,70.962000,-137.298000,139.802000,29.38
9.484603,0.395000,-0.656000,-0.995000,89.069000,-126.947000,142.977000,29.47
9.494616,0.492000,-0.531000,-1.137000,92.595000,-131.573000,141.924000,29.42
9.504639,0.515000,-0.307000,-1.226000,93.969000,-156.336000,134.534000,29.42
9.514692,0.533000,-0.107000,-1.315000,103.832000,-177.282000,120.519000,29.38
9.524620,0.592000,0.029000,-1.296000,126.656000,-197.527000,105.313000,29.38
9.534449,0.635000,0.074000,-1.305000,146.351000,-210.504000,91.969000,29.52
9.544528,0.717000,0.058000,-1.416000,162.870000,-211.954000,82.641000,29.42
9.554581,0.799000,0.068000,-1.483000,176.595000,-209.679000,74.687000,29.38
9.564575,0.858000,0.077000,-1.470000,185.740000,-210.824000,65.771000,29.38
9.574378,0.869000,0.092000,-1.425000,188.412000,-217.542000,57.450000,29.42
9.584592,0.867000,0.073000,-1.381000,185.908000,-218.733000,49.863000,29.47
9.594431,0.892000,0.005000,-1.380000,189.725000,-222.122000,43.145000,29.38
9.604653,0.979000,-0.037000,-1.377000,198.305000,-208.061000,40.672000,29.47
9.614606,1.100000,-0.045000,-1.321000,211.924000,-188.275000,43.038000,29.42
9.624686,1.256000,-0.007000,-1.248000,223.908000,-163.466000,49.282000,29.52
9.634691,1.450000,0.013000,-1.291000,227.634000,-134.382000,62.809000,29.47
9.644561,1.602000,0.175000,-1.347000,227.863000,-114.687000,83.176000,29.47
9.654471,1.681000,0.441000,-1.379000,219.328000,-92.290000,104.244000,29.42
9.664646,1.692000,0.656000,-1.421000,209.237000,-86.992000,117.176000,29.42
9.674540,1.764000,0.884000,-1.401000,193.908000,-85.817000,118.947000,29.47
9.684528,1.910000,1.240000,-1.347000,178.473000,-93.130000,112.015000,29.47
9.694425,1.964000,1.447000,-1.284000,184.794000,-116.504000,99.389000,29.52
9.704517,2.156000,1.474000,-0.807000,154.198000,-86.107000,88.214000,29.52
9.714736,2.300000,1.579000,-0.429000,139.191000,-92.046000,82.550000,29.42
9.724400,2.290000,1.552000,0.106000,115.008000,-74.031000,79.679000,29.28
9.734558,2.408000,1.568000,0.155000,83.634000,-39.542000,80.260000,29.47
9.744533,2.485000,1.634000,0.141000,37.969000,11.221000,88.779000,29.52
9.754419,2.421000,1.568000,0.324000,-8.473000,33.023000,98.107000,29.33
9.764632,3.323000,2.961000,0.274000,-118.107000,122.443000,12.153000,29.38
9.774684,-0.340000,1.602000,0.538000,-101.679000,50.015000,-30.947000,29.57
9.784402,1.145000,-0.336000,-2.980000,-89.939000,66.718000,-72.824000,29.42
9.794603,-0.543000,-1.726000,-1.591000,-72.672000,-36.763000,-55.084000,29.38
9.804494,-1.334000,-1.097000,0.685000,-68.382000,-44.260000,-88.840000,29.38
9.814750,0.472000,-0.297000,-0.122000,-104.733000,203.313000,-127.084000,29.38
9.824633,2.012000,0.509000,-3.676000,-97.344000,199.191000,-109.328000,29.42
9.834694,0.640000,1.248000,-2.551000,-72.015000,114.733000,-103.649000,29.52
9.844652,0.185000,0.394000,-1.755000,-49.878000,130.214000,-119.099000,29.38
9.854611,0.906000,-0.865000,-1.105000,-25.542000,86.183000,-83.405000,29.47
9.864521,0.526000,-0.659000,-0.598000,-20.565000,26.656000,-65.573000,29.33
9.874439,0.268000,-0.434000,-0.781000,-41.802000,11.221000,-78.687000,29.42
9.884385,0.617000,-0.546000,-0.450000,-100.718000,41.023000,-73.588000,29.38
9.894530,0.835000,-0.910000,-0.620000,-134.000000,4.641000,-72.504000,29.38
9.904853,0.676000,-0.807000,-0.765000,-182.168000,-14.031000,-78.351000,29.42
9.914406,0.751000,-0.594000,-1.354000,-212.519000,42.947000,-75.557000,29.52
9.924353,0.676000,-0.337000,-1.366000,-185.481000,27.069000,-65.664000,29.38
9.934418,0.729000,0.163000,-1.690000,-159.344000,55.893000,-42.794000,29.38
9.944491,0.335000,-0.028000,-1.003000,-119.313000,-3.359000,-33.237000,29.33
9.954517,0.370000,-0.141000,-1.022000,-100.779000,-11.527000,-28.840000,29.47
9.964579,0.373000,-0.069000,-1.153000,-68.595000,7.221000,-32.901000,29.47
9.974604,0.419000,-0.127000,-0.993000,-45.664000,-23.740000,-22.092000,29.38
9.984429,0.344000,-0.253000,-0.884000,-32.412000,-31.313000,-23.221000,29.42
9.994424,0.418000,-0.303000,-0.961000,-44.580000,-2.992000,-26.641000,29.42
10.004479,0.407000,-0.303000,-0.907000,-53.740000,18.824000,-28.656000,29.38
