# Gait Analysis Data - MPU6050 IMU
# Duration: 10 seconds
# Format: timestamp(s),ax(g),ay(g),az(g),gx(deg/s),gy(deg/s),gz(deg/s),temp(C)
# Note: Document sensor placement (ankle/wrist) separately
timestamp,ax,ay,az,gx,gy,gz,temp
0.000568,0.392000,-0.266000,-0.889000,-59.359000,21.939000,-32.137000,29.38
0.001171,0.418000,-0.213000,-0.904000,-58.870000,21.023000,-34.611000,29.42
0.001742,0.408000,-0.140000,-0.991000,-55.313000,16.382000,-32.656000,29.42
0.002304,0.442000,-0.116000,-0.973000,-52.931000,22.183000,-30.565000,29.47
0.002856,0.405000,-0.077000,-0.863000,-41.664000,15.527000,-25.115000,29.38
0.003409,0.397000,-0.069000,-0.911000,-36.244000,15.725000,-22.168000,29.42
0.003959,0.422000,-0.057000,-0.939000,-31.328000,15.939000,-19.344000,29.42
0.004512,0.382000,-0.051000,-0.931000,-27.863000,15.786000,-17.573000,29.38
0.005232,0.477000,-0.190000,-0.961000,-28.092000,20.489000,-16.061000,29.38
0.005944,0.395000,-0.106000,-0.874000,-26.351000,24.550000,-16.565000,29.33
0.006534,0.409000,-0.076000,-0.917000,-25.084000,25.710000,-15.450000,29.38
0.007105,0.419000,-0.045000,-0.915000,-23.344000,28.336000,-14.397000,29.38
0.007684,0.439000,-0.070000,-0.900000,-23.359000,28.947000,-13.084000,29.38
0.008256,0.406000,-0.022000,-0.872000,-23.008000,32.916000,-12.427000,29.42
0.008790,0.429000,-0.019000,-0.919000,-18.656000,29.511000,-9.160000,29.52
0.009296,0.425000,-0.036000,-0.931000,-15.298000,29.038000,-7.511000,29.47
0.009896,0.445000,-0.064000,-0.906000,-13.206000,30.595000,-7.908000,29.38
0.010629,0.426000,-0.093000,-0.895000,-10.794000,29.267000,-8.260000,29.42
0.011225,0.427000,-0.095000,-0.900000,-10.550000,31.481000,-9.481000,29.42
0.011770,0.436000,-0.072000,-0.894000,-10.565000,35.130000,-9.435000,29.57
0.012291,0.445000,-0.023000,-0.906000,-8.718000,39.557000,-8.427000,29.38
0.012805,0.473000,-0.018000,-0.925000,-4.763000,41.954000,-6.427000,29.38
0.013334,0.512000,-0.010000,-0.946000,-3.069000,45.527000,-3.481000,29.42
0.013924,0.545000,-0.008000,-0.926000,2.031000,43.527000,-0.534000,29.42
0.014562,0.548000,-0.067000,-0.863000,4.321000,30.840000,1.450000,29.47
0.015359,0.527000,-0.061000,-0.819000,8.687000,22.885000,2.168000,29.38
0.015954,0.475000,-0.063000,-0.800000,14.779000,20.824000,1.893000,29.42
0.016497,0.456000,-0.095000,-0.826000,11.252000,18.244000,2.901000,29.42
0.017045,0.474000,-0.140000,-0.849000,3.679000,24.580000,0.168000,29.47
0.017574,0.462000,-0.127000,-0.851000,-2.748000,27.771000,-4.718000,29.38
0.018105,0.473000,-0.122000,-0.902000,-7.405000,31.695000,-8.137000,29.52
0.018635,0.482000,-0.110000,-0.901000,-13.389000,35.237000,-8.519000,29.38
0.019174,0.477000,-0.117000,-0.925000,-16.366000,38.580000,-11.649000,29.47
0.019704,0.474000,-0.115000,-0.938000,-14.198000,39.664000,-18.351000,29.38
0.020267,0.480000,-0.138000,-0.926000,-17.969000,52.595000,-23.450000,29.42
0.020809,0.477000,-0.148000,-0.944000,-15.237000,54.443000,-29.740000,29.42
0.021316,0.478000,-0.161000,-0.956000,-9.496000,57.847000,-37.328000,29.28
0.021860,0.542000,-0.092000,-0.907000,-5.328000,62.137000,-49.084000,29.47
0.022341,0.654000,0.058000,-0.957000,2.122000,68.962000,-63.969000,29.33
0.022827,0.661000,-0.029000,-0.854000,13.573000,67.130000,-80.794000,29.33
0.023309,0.604000,-0.086000,-0.834000,24.107000,53.710000,-97.115000,29.38
0.023789,0.695000,-0.144000,-0.808000,32.519000,47.832000,-116.351000,29.47
0.024262,0.754000,-0.244000,-0.841000,40.015000,36.977000,-137.053000,29.42
0.024814,0.741000,-0.275000,-0.703000,45.359000,23.237000,-154.809000,29.42
0.025431,0.807000,-0.230000,-0.740000,53.130000,9.160000,-171.298000,29.38
0.026032,0.844000,-0.125000,-0.769000,64.855000,-3.939000,-189.252000,29.47
0.026595,0.829000,-0.192000,-0.736000,73.817000,-19.985000,-205.908000,29.42
0.027104,0.709000,-0.148000,-0.642000,84.489000,-35.450000,-219.969000,29.38
0.027606,0.633000,-0.151000,-0.690000,97.008000,-47.160000,-233.282000,29.38
0.028080,0.642000,-0.168000,-0.684000,112.046000,-48.473000,-245.893000,29.47
0.028535,0.559000,-0.235000,-0.625000,122.702000,-53.924000,-252.427000,29.52
0.028971,0.566000,-0.259000,-0.513000,137.863000,-50.076000,-252.382000,29.42
0.029441,0.639000,-0.323000,-0.447000,149.588000,-35.588000,-246.427000,29.47
0.029891,0.644000,-0.407000,-0.448000,158.443000,-23.374000,-236.061000,29.38
0.030330,0.678000,-0.390000,-0.499000,164.824000,-12.931000,-224.779000,29.42
0.030792,0.630000,-0.233000,-0.677000,165.557000,-4.824000,-218.840000,29.33
0.031252,0.574000,-0.022000,-0.857000,167.817000,-4.290000,-217.710000,29.38
0.031721,0.499000,0.126000,-0.892000,167.786000,-13.420000,-221.450000,29.47
0.032200,0.431000,0.252000,-0.895000,172.031000,-22.229000,-227.679000,29.38
0.032673,0.375000,0.364000,-0.950000,180.229000,-22.244000,-238.427000,29.42
0.033149,0.350000,0.416000,-1.014000,183.588000,-22.427000,-249.679000,29.42
0.033617,0.351000,0.421000,-0.955000,189.832000,-32.550000,-258.351000,29.38
0.034098,0.323000,0.389000,-0.973000,186.672000,-32.336000,-264.458000,29.38
0.034578,0.313000,0.321000,-1.000000,182.122000,-40.992000,-266.305000,29.42
0.035047,0.321000,0.219000,-0.984000,177.603000,-48.122000,-264.198000,29.33
0.035507,0.309000,0.088000,-0.960000,174.031000,-51.847000,-259.038000,29.38
0.035966,0.292000,-0.038000,-0.977000,169.908000,-53.053000,-252.076000,29.38
0.036423,0.297000,-0.174000,-1.020000,163.069000,-56.458000,-243.817000,29.24
0.036872,0.290000,-0.197000,-0.999000,151.695000,-62.076000,-232.137000,29.38
0.037326,0.241000,-0.103000,-0.953000,140.504000,-68.733000,-218.153000,29.47
0.037782,0.184000,-0.020000,-0.915000,138.336000,-62.565000,-205.374000,29.47
0.038228,0.150000,0.040000,-1.055000,135.893000,-58.580000,-191.511000,29.33
0.038684,0.147000,0.003000,-0.950000,135.282000,-58.046000,-174.931000,29.33
0.039135,0.101000,0.006000,-0.939000,139.038000,-51.282000,-155.084000,29.47
0.039625,0.108000,-0.025000,-0.996000,136.794000,-44.031000,-132.794000,29.47
0.040101,0.221000,-0.204000,-1.071000,122.183000,-37.435000,-106.687000,29.42
0.040602,0.233000,-0.402000,-0.943000,103.267000,-26.275000,-73.649000,29.33
0.041106,0.360000,-0.369000,-0.990000,72.626000,-27.603000,-37.771000,29.38
0.041582,0.432000,-0.163000,-0.934000,45.985000,-31.389000,-1.954000,29.38
0.042048,0.259000,0.357000,-1.031000,47.573000,-20.840000,20.855000,29.33
0.042499,0.340000,0.321000,-1.172000,57.924000,-24.031000,21.817000,29.42
0.042938,0.427000,-0.309000,-0.929000,52.382000,-26.626000,24.977000,29.38
0.043381,0.445000,-0.482000,-0.850000,58.718000,-31.542000,24.076000,29.47
0.043819,0.448000,-0.592000,-0.727000,38.626000,-22.153000,13.053000,29.42
0.044235,0.458000,-0.692000,-0.778000,22.122000,1.206000,6.870000,29.47
0.044651,0.293000,-0.302000,-0.901000,7.924000,3.832000,-0.122000,29.38
0.045071,0.344000,-0.220000,-0.924000,-3.252000,-0.641000,-2.916000,29.38
0.045496,0.395000,-0.234000,-0.930000,-9.847000,1.939000,-3.695000,29.33
0.045921,0.379000,-0.213000,-0.908000,-9.878000,-9.649000,-3.893000,29.42
0.046351,0.353000,-0.165000,-0.916000,-6.107000,-13.954000,-3.206000,29.38
0.046774,0.299000,-0.071000,-0.914000,-1.115000,-6.992000,-2.214000,29.47
0.047223,0.265000,-0.053000,-0.950000,3.603000,-0.763000,-0.321000,29.42
0.047640,0.264000,-0.050000,-0.959000,9.908000,4.458000,1.466000,29.33
0.048057,0.291000,-0.104000,-0.958000,17.679000,9.466000,3.802000,29.38
0.048476,0.313000,-0.144000,-0.946000,23.710000,16.550000,4.595000,29.38
0.048897,0.385000,-0.188000,-0.931000,25.878000,22.107000,5.069000,29.33
0.049323,0.412000,-0.217000,-0.916000,22.656000,22.534000,6.672000,29.33
0.049754,0.425000,-0.238000,-0.911000,19.099000,20.260000,7.115000,29.38
0.050170,0.431000,-0.268000,-0.879000,11.924000,24.031000,7.069000,29.47
0.050764,0.428000,-0.247000,-0.926000,17.038000,12.901000,6.382000,29.42
0.051330,0.394000,-0.232000,-0.907000,17.237000,5.328000,6.458000,29.38
0.051765,0.359000,-0.218000,-0.900000,15.634000,1.756000,6.611000,29.28
0.052184,0.344000,-0.228000,-0.897000,14.977000,-0.260000,6.260000,29.38
0.052599,0.351000,-0.240000,-0.927000,13.481000,1.863000,5.038000,29.33
0.053014,0.347000,-0.238000,-0.893000,10.198000,8.275000,4.015000,29.33
0.053423,0.384000,-0.224000,-0.917000,9.771000,9.878000,4.244000,29.47
0.053903,0.382000,-0.201000,-0.928000,12.473000,7.679000,5.237000,29.38
0.054337,0.413000,-0.237000,-0.788000,6.763000,12.687000,6.580000,29.42
0.054755,0.371000,-0.240000,-0.892000,12.550000,4.962000,5.893000,29.33
0.055166,0.374000,-0.239000,-0.897000,11.466000,1.588000,6.061000,29.38
0.055611,0.384000,-0.235000,-0.916000,20.183000,6.824000,5.298000,29.47
0.056048,0.408000,-0.212000,-0.763000,7.023000,0.733000,8.382000,29.42
0.056489,0.350000,-0.236000,-1.035000,24.534000,0.901000,5.634000,29.42
0.056908,0.350000,-0.208000,-0.930000,16.366000,9.282000,6.824000,29.38
0.057332,0.353000,-0.236000,-0.887000,22.519000,2.580000,6.824000,29.47
0.057751,0.360000,-0.246000,-0.906000,24.458000,4.611000,6.916000,29.52
0.058164,0.366000,-0.222000,-0.908000,27.847000,6.061000,7.435000,29.38
0.058573,0.366000,-0.257000,-0.901000,28.870000,7.725000,7.771000,29.47
0.058986,0.363000,-0.265000,-0.884000,29.328000,6.565000,7.832000,29.38
0.059398,0.357000,-0.265000,-0.884000,30.473000,6.733000,7.893000,29.42
0.059813,0.359000,-0.272000,-0.874000,30.198000,7.359000,7.618000,29.42
0.060223,0.365000,-0.302000,-0.870000,28.626000,6.733000,7.542000,29.38
0.060850,0.377000,-0.290000,-0.890000,28.687000,6.779000,7.618000,29.47
0.061418,0.365000,-0.291000,-0.885000,28.931000,6.504000,7.573000,29.33
0.061921,0.365000,-0.309000,-0.875000,29.130000,7.176000,7.267000,29.42
0.062375,0.380000,-0.273000,-0.904000,31.634000,7.374000,8.092000,29.47
0.062826,0.355000,-0.288000,-0.895000,34.656000,7.679000,8.565000,29.47
0.063290,0.383000,-0.302000,-0.896000,38.000000,7.099000,9.511000,29.33
0.063830,0.385000,-0.299000,-0.900000,41.725000,8.046000,9.878000,29.33
0.064344,0.374000,-0.316000,-0.905000,45.038000,8.397000,10.733000,29.38
0.064804,0.368000,-0.332000,-0.860000,45.542000,7.878000,10.534000,29.47
0.065253,0.383000,-0.381000,-0.869000,46.183000,8.351000,9.771000,29.42
0.065697,0.374000,-0.369000,-0.896000,44.931000,11.893000,9.542000,29.42
0.066131,0.395000,-0.362000,-0.875000,45.924000,10.931000,9.176000,29.42
0.066573,0.406000,-0.417000,-0.803000,45.832000,7.802000,10.672000,29.38
0.067054,0.402000,-0.422000,-0.837000,44.244000,6.733000,10.595000,29.38
0.067501,0.404000,-0.430000,-0.873000,44.473000,5.664000,10.901000,29.33
0.067915,0.398000,-0.419000,-0.848000,44.366000,2.855000,11.679000,29.47
0.068333,0.372000,-0.423000,-0.810000,41.420000,0.687000,11.374000,29.38
0.068756,0.386000,-0.470000,-0.812000,39.679000,-0.214000,11.328000,29.38
0.069260,0.354000,-0.465000,-0.769000,35.084000,-2.611000,10.534000,29.33
0.069725,0.373000,-0.496000,-0.764000,29.282000,-0.763000,9.237000,29.42
0.070160,0.370000,-0.482000,-0.773000,24.168000,-1.771000,8.733000,29.38
0.070605,0.337000,-0.503000,-0.755000,16.947000,-2.641000,7.374000,29.28
0.071043,0.337000,-0.499000,-0.738000,9.069000,-4.885000,5.664000,29.33
0.071504,0.329000,-0.479000,-0.725000,-0.718000,-6.504000,4.183000,29.42
0.071965,0.308000,-0.459000,-0.716000,-10.321000,-5.435000,1.527000,29.38
0.072401,0.352000,-0.478000,-0.768000,-17.389000,-3.115000,-0.412000,29.47
0.072826,0.411000,-0.454000,-0.834000,-20.061000,-3.832000,-0.137000,29.33
0.073255,0.393000,-0.440000,-0.850000,-21.374000,-5.908000,0.580000,29.42
0.073673,0.370000,-0.461000,-0.828000,-23.374000,-9.099000,1.588000,29.28
0.074094,0.381000,-0.479000,-0.797000,-27.237000,-11.206000,3.038000,29.38
0.074516,0.401000,-0.452000,-0.816000,-33.450000,-10.061000,3.069000,29.33
0.074933,0.366000,-0.398000,-0.835000,-36.244000,-7.237000,3.649000,29.38
0.075354,0.351000,-0.395000,-0.859000,-39.115000,-6.794000,3.527000,29.38
0.075768,0.332000,-0.469000,-0.840000,-40.824000,-8.000000,5.328000,29.38
0.076197,0.276000,-0.485000,-0.756000,-52.198000,-22.122000,1.160000,29.42
0.076625,0.254000,-0.389000,-0.813000,-53.298000,-14.702000,-1.756000,29.33
0.077069,0.218000,-0.335000,-0.741000,-56.122000,-9.298000,-3.832000,29.38
0.077498,0.186000,-0.206000,-0.730000,-57.084000,-3.588000,-7.023000,29.38
0.077926,0.194000,-0.146000,-0.788000,-59.160000,-0.672000,-12.061000,29.42
0.078358,0.237000,-0.204000,-0.837000,-58.840000,3.481000,-15.466000,29.42
0.078811,0.351000,-0.197000,-0.945000,-52.153000,6.870000,-20.061000,29.38
0.079327,0.331000,-0.075000,-0.969000,-43.160000,6.412000,-31.328000,29.38
0.079859,0.327000,-0.119000,-1.129000,-46.672000,-6.443000,-49.389000,29.42
0.080319,0.444000,0.121000,-1.205000,-32.870000,-14.626000,-74.351000,29.52
0.080818,0.390000,0.268000,-1.194000,15.237000,-23.679000,-108.870000,29.38
0.081285,0.408000,0.231000,-1.206000,81.466000,-43.511000,-151.740000,29.38
0.081725,0.633000,-0.420000,-0.851000,122.092000,-37.008000,-171.053000,29.42
0.082177,0.765000,-0.688000,-0.531000,100.260000,-74.489000,-181.496000,29.28
0.082633,0.686000,-0.493000,-0.448000,54.351000,-33.954000,-192.809000,29.28
0.083066,0.673000,-0.180000,-0.841000,49.634000,-46.382000,-194.382000,29.38
0.083512,0.630000,-0.074000,-0.849000,66.290000,-38.733000,-198.550000,29.33
0.083954,0.652000,-0.164000,-0.811000,73.664000,-23.496000,-207.863000,29.33
0.084391,0.618000,-0.226000,-0.670000,74.076000,-25.328000,-206.519000,29.47
0.084826,0.634000,-0.254000,-0.728000,84.534000,-59.496000,-206.076000,29.38
0.085258,0.565000,-0.251000,-0.642000,75.969000,-38.473000,-206.244000,29.42
0.085704,0.574000,-0.282000,-0.676000,67.237000,-30.656000,-199.893000,29.24
0.086134,0.599000,-0.374000,-0.722000,53.053000,-29.802000,-187.908000,29.38
0.086570,0.586000,-0.499000,-0.779000,37.893000,-31.557000,-168.733000,29.28
0.087022,0.479000,-0.684000,-0.721000,24.443000,-38.443000,-144.443000,29.33
0.087461,0.425000,-0.745000,-0.759000,16.947000,-34.672000,-119.771000,29.33
0.087906,0.361000,-0.667000,-0.773000,10.473000,-31.038000,-95.206000,29.33
0.088364,0.281000,-0.601000,-0.843000,12.336000,-32.901000,-74.031000,29.47
0.088823,0.245000,-0.573000,-0.766000,29.420000,-23.466000,-59.710000,29.38
0.089392,0.200000,-0.503000,-0.755000,33.756000,-23.191000,-46.855000,29.33
0.089973,0.214000,-0.425000,-0.745000,32.260000,-14.382000,-37.130000,29.42
0.090435,0.210000,-0.383000,-0.833000,33.939000,-11.145000,-30.672000,29.28
0.090898,0.182000,-0.329000,-0.897000,35.099000,-20.855000,-25.511000,29.28
0.091354,0.171000,-0.299000,-0.904000,36.122000,-30.061000,-21.771000,29.33
0.091811,0.185000,-0.284000,-0.934000,33.053000,-30.427000,-19.359000,29.38
0.092323,0.480000,-1.258000,-1.638000,-2.656000,-58.183000,-15.206000,29.28
0.092805,0.138000,0.054000,-1.136000,-44.137000,-88.168000,-20.015000,29.38
0.093265,0.332000,-0.331000,-0.882000,31.145000,-49.359000,23.740000,29.33
0.093727,-0.004000,-0.141000,-0.611000,-17.695000,-40.443000,13.603000,29.33
0.094181,0.198000,0.019000,-1.376000,-4.977000,-18.656000,4.656000,29.38
0.094626,0.168000,-0.268000,-1.220000,7.038000,-7.405000,-0.137000,29.38
0.095074,0.191000,-0.369000,-0.820000,16.870000,-0.198000,1.038000,29.42
0.095525,0.249000,-0.398000,-0.751000,12.870000,19.405000,-2.198000,29.42
0.096008,0.373000,-0.299000,-0.874000,10.092000,31.359000,-2.443000,29.38
0.096482,0.383000,-0.199000,-0.927000,6.397000,30.656000,-1.832000,29.38
0.096937,0.394000,-0.126000,-0.919000,16.702000,27.023000,0.718000,29.42
0.097413,0.381000,-0.236000,-0.938000,28.198000,9.282000,3.695000,29.42
0.097865,0.369000,-0.382000,-0.863000,28.687000,9.374000,5.099000,29.38
0.098299,0.372000,-0.430000,-0.808000,29.359000,7.481000,5.573000,29.38
0.098737,0.339000,-0.302000,-0.812000,28.519000,10.870000,6.107000,29.33
0.099245,0.393000,-0.259000,-0.990000,30.076000,20.489000,5.649000,29.38
0.099773,0.431000,-0.226000,-1.055000,40.260000,17.603000,9.252000,29.47
0.100233,0.403000,-0.287000,-0.923000,46.122000,26.595000,10.687000,29.38
0.100673,0.392000,-0.428000,-0.764000,48.031000,6.458000,16.794000,29.42
0.101121,0.357000,-0.431000,-0.772000,49.954000,1.298000,16.061000,29.33
0.101569,0.307000,-0.317000,-0.815000,38.229000,10.443000,13.679000,29.38
0.102083,0.277000,-0.251000,-0.814000,30.397000,22.580000,11.313000,29.38
0.102565,0.331000,-0.292000,-0.919000,36.519000,12.550000,11.359000,29.33
0.103040,0.373000,-0.336000,-0.859000,43.771000,13.878000,11.847000,29.42
0.103490,0.364000,-0.374000,-0.870000,46.000000,6.565000,12.031000,29.38
0.103943,0.390000,-0.426000,-0.882000,44.290000,16.992000,11.511000,29.38
0.104426,0.434000,-0.435000,-0.896000,42.901000,21.603000,12.397000,29.42
0.104866,0.418000,-0.494000,-0.865000,43.252000,13.908000,13.389000,29.33
0.105355,0.418000,-0.489000,-0.819000,44.366000,5.450000,12.870000,29.38
0.105819,0.412000,-0.513000,-0.770000,38.504000,12.153000,11.023000,29.38
0.106237,0.373000,-0.486000,-0.739000,33.802000,8.351000,9.084000,29.33
0.106649,0.355000,-0.489000,-0.754000,28.947000,4.626000,7.237000,29.33
0.107072,0.338000,-0.453000,-0.791000,24.153000,5.099000,4.992000,29.28
0.107499,0.333000,-0.452000,-0.812000,21.618000,2.977000,3.084000,29.38
0.107911,0.330000,-0.481000,-0.782000,18.947000,3.252000,1.359000,29.33
0.108315,0.352000,-0.481000,-0.765000,15.405000,4.244000,0.107000,29.33
0.108723,0.342000,-0.485000,-0.722000,10.244000,2.153000,-1.313000,29.38
0.109129,0.338000,-0.502000,-0.675000,2.137000,1.282000,-3.237000,29.38
0.109637,0.336000,-0.521000,-0.669000,-6.412000,1.145000,-5.466000,29.33
0.110168,0.367000,-0.526000,-0.714000,-14.458000,1.969000,-7.450000,29.33
0.110615,0.368000,-0.478000,-0.740000,-20.198000,1.878000,-8.519000,29.28
0.111065,0.355000,-0.449000,-0.752000,-23.603000,1.527000,-9.389000,29.38
0.111503,0.384000,-0.435000,-0.813000,-23.725000,0.702000,-9.450000,29.42
0.112001,0.373000,-0.393000,-0.840000,-21.847000,-1.160000,-8.458000,29.42
0.112494,0.357000,-0.395000,-0.810000,-21.771000,-0.962000,-7.084000,29.38
0.112965,0.347000,-0.402000,-0.792000,-22.534000,0.305000,-6.443000,29.38
0.113421,0.343000,-0.395000,-0.796000,-23.756000,1.695000,-6.092000,29.33
0.113908,0.333000,-0.378000,-0.762000,-26.733000,2.321000,-6.305000,29.42
0.114340,0.266000,-0.384000,-0.690000,-30.916000,1.985000,-7.328000,29.38
0.114756,0.264000,-0.393000,-0.662000,-41.954000,1.924000,-9.695000,29.38
0.115175,0.325000,-0.421000,-0.691000,-56.290000,1.939000,-11.435000,29.33
0.115591,0.352000,-0.438000,-0.745000,-69.389000,3.374000,-12.565000,29.42
0.116011,0.360000,-0.398000,-0.748000,-86.137000,28.076000,-14.824000,29.28
0.116435,0.435000,-0.455000,-0.933000,-79.313000,18.153000,-14.626000,29.38
0.116853,0.444000,-0.403000,-0.951000,-64.992000,8.443000,-13.573000,29.42
0.117290,0.458000,-0.385000,-0.980000,-47.145000,1.771000,-11.267000,29.33
0.117715,0.402000,-0.353000,-0.907000,-33.435000,-0.977000,-9.863000,29.38
0.118137,0.421000,-0.340000,-0.914000,-28.641000,0.931000,-8.672000,29.38
0.118556,0.418000,-0.322000,-0.894000,-25.756000,4.809000,-7.740000,29.33
0.118986,0.397000,-0.336000,-0.870000,-17.359000,5.450000,-7.328000,29.42
0.119476,0.296000,-0.396000,-0.864000,-17.802000,11.008000,-7.557000,29.38
0.120012,0.393000,-0.340000,-0.846000,-14.427000,5.985000,-7.221000,29.47
0.120461,0.400000,-0.329000,-0.873000,-12.366000,4.351000,-7.832000,29.33
0.120907,0.388000,-0.358000,-0.832000,-16.168000,4.443000,-8.290000,29.42
0.121350,0.403000,-0.350000,-0.858000,-17.344000,6.107000,-9.038000,29.38
0.121807,0.389000,-0.344000,-0.862000,-17.740000,4.260000,-8.962000,29.38
0.122363,0.403000,-0.352000,-0.847000,-19.328000,7.466000,-9.771000,29.42
0.122841,0.390000,-0.312000,-0.849000,-15.008000,5.008000,-10.229000,29.42
0.123274,0.402000,-0.307000,-0.881000,-17.328000,6.214000,-9.634000,29.38
0.123710,0.401000,-0.316000,-0.870000,-15.527000,10.504000,-9.832000,29.38
0.124136,0.404000,-0.329000,-0.856000,-16.656000,7.130000,-9.374000,29.33
0.124565,0.400000,-0.327000,-0.862000,-18.015000,9.603000,-9.817000,29.33
0.124984,0.400000,-0.343000,-0.848000,-19.359000,7.847000,-10.733000,29.42
0.125398,0.407000,-0.362000,-0.843000,-22.611000,6.748000,-11.969000,29.38
0.125816,0.417000,-0.360000,-0.841000,-26.916000,5.389000,-13.771000,29.28
0.126237,0.416000,-0.349000,-0.852000,-31.237000,3.603000,-15.511000,29.33
0.126655,0.403000,-0.330000,-0.854000,-34.153000,1.466000,-16.687000,29.33
0.127089,0.410000,-0.341000,-0.830000,-37.618000,-0.366000,-17.679000,29.38
0.127521,0.394000,-0.318000,-0.835000,-40.504000,-2.046000,-19.084000,29.38
0.127958,0.398000,-0.328000,-0.842000,-43.252000,-0.382000,-20.824000,29.33
0.128403,0.393000,-0.321000,-0.863000,-46.702000,1.328000,-22.641000,29.33
0.128879,0.386000,-0.298000,-0.872000,-49.985000,1.359000,-24.031000,29.47
0.129396,0.378000,-0.314000,-0.892000,-52.870000,2.107000,-26.427000,29.38
0.130037,0.358000,-0.288000,-0.919000,-51.511000,9.435000,-27.756000,29.33
0.130504,0.394000,-0.262000,-0.937000,-52.275000,16.748000,-28.672000,29.38
0.130953,0.417000,-0.214000,-0.959000,-50.305000,27.847000,-31.420000,29.38
0.131391,0.628000,-0.251000,-0.773000,-34.565000,47.221000,-45.405000,29.38
0.131814,0.402000,-0.524000,-0.674000,-44.473000,35.695000,-29.969000,29.42
0.132257,0.320000,0.000000,-1.183000,-31.282000,44.870000,-41.832000,29.42
0.132690,0.335000,-0.120000,-0.917000,-37.023000,56.290000,-44.397000,29.28
0.133124,0.345000,-0.111000,-1.051000,-20.153000,72.931000,-53.038000,29.38
0.133543,0.315000,-0.104000,-1.016000,-6.840000,73.053000,-63.389000,29.42
0.133957,0.391000,-0.156000,-1.049000,5.023000,78.550000,-81.282000,29.33
0.134384,0.468000,-0.168000,-0.980000,14.855000,75.206000,-102.290000,29.38
0.134832,0.607000,-0.324000,-1.106000,17.313000,69.145000,-120.473000,29.38
0.135258,0.568000,-0.415000,-0.918000,11.176000,50.351000,-132.366000,29.33
0.135676,0.613000,-0.477000,-0.964000,14.061000,48.198000,-147.527000,29.42
0.136100,0.602000,-0.655000,-1.022000,12.382000,21.115000,-150.611000,29.38
0.136519,0.431000,-0.865000,-1.175000,15.756000,4.916000,-146.000000,29.38
0.136957,0.568000,-1.318000,-1.105000,24.489000,0.382000,-113.298000,29.33
0.137381,0.603000,-1.202000,-0.740000,38.336000,0.092000,-78.687000,29.33
0.137808,0.212000,-1.134000,-0.939000,49.374000,-34.427000,-55.847000,29.38
0.138232,0.162000,-0.823000,-0.337000,27.664000,-26.718000,-39.603000,29.38
0.138794,0.038000,-0.647000,-0.659000,40.412000,-31.603000,-36.244000,29.33
0.139317,0.028000,-0.531000,-0.826000,56.626000,-47.985000,-36.458000,29.33
0.139764,0.078000,-0.510000,-0.838000,64.626000,-45.740000,-37.969000,29.38
0.140209,0.126000,-0.472000,-0.825000,68.183000,-50.473000,-34.977000,29.28
0.140636,0.152000,-0.444000,-0.816000,69.008000,-54.779000,-29.466000,29.38
0.141063,0.199000,-0.412000,-0.823000,71.649000,-55.771000,-22.443000,29.42
0.141489,0.258000,-0.423000,-0.810000,80.687000,-57.710000,-14.718000,29.33
0.141926,0.312000,-0.427000,-0.823000,91.008000,-58.015000,-4.763000,29.28
0.142358,0.358000,-0.376000,-0.756000,95.771000,-53.847000,5.878000,29.38
0.142779,0.394000,-0.316000,-0.725000,99.878000,-45.710000,15.664000,29.33
0.143203,0.430000,-0.221000,-0.780000,105.359000,-36.565000,23.496000,29.33
0.143629,0.441000,-0.125000,-0.835000,115.954000,-27.420000,28.901000,29.28
0.144057,0.461000,-0.055000,-0.922000,119.130000,-21.908000,33.221000,29.28
0.144481,0.485000,0.026000,-1.011000,119.115000,-24.458000,36.519000,29.33
0.144900,0.473000,0.191000,-1.068000,117.664000,-30.443000,35.481000,29.42
0.145313,0.422000,0.362000,-1.112000,116.092000,-39.191000,28.427000,29.28
0.145734,0.384000,0.500000,-1.125000,114.275000,-51.924000,15.206000,29.38
0.146154,0.369000,0.550000,-1.041000,101.786000,-58.565000,-0.229000,29.33
0.146571,0.309000,0.599000,-0.953000,91.008000,-67.099000,-17.130000,29.38
0.147067,0.240000,0.580000,-0.825000,81.863000,-65.389000,-37.908000,29.38
0.147518,0.803000,0.650000,0.197000,-123.969000,-92.290000,-67.145000,29.38
0.147976,0.240000,2.592000,-0.394000,-165.069000,-57.160000,-126.809000,29.24
0.148413,1.616000,3.260000,-1.306000,-149.954000,26.580000,-146.092000,29.33
0.148860,1.104000,0.274000,-1.121000,-273.206000,185.847000,-57.344000,29.38
0.149276,1.677000,-0.770000,-3.249000,-70.672000,125.649000,0.412000,29.28
0.149829,-0.240000,-0.099000,-1.114000,10.443000,-86.198000,26.000000,29.33
0.150446,-0.265000,-0.611000,-0.617000,60.198000,-150.733000,12.137000,29.33
0.150906,0.313000,-0.677000,-0.963000,62.824000,-159.084000,2.366000,29.38
0.151345,0.396000,0.000000,-0.923000,-20.382000,2.718000,-4.794000,29.38
0.151789,0.543000,-0.037000,-1.177000,-5.863000,38.305000,0.198000,29.42
0.152283,0.327000,-0.112000,-0.954000,17.634000,38.000000,3.115000,29.42
0.152753,0.555000,-0.553000,-1.351000,30.351000,60.443000,-6.672000,29.47
0.153257,0.503000,-0.544000,-0.717000,19.679000,31.313000,-5.115000,29.38
0.153699,0.470000,-0.317000,-0.895000,12.733000,-14.443000,0.519000,29.33
0.154123,0.415000,-0.222000,-0.914000,8.000000,-20.763000,3.099000,29.38
0.154545,0.345000,-0.297000,-0.867000,0.611000,-10.901000,2.885000,29.38
0.154962,0.315000,-0.282000,-0.910000,-3.389000,4.473000,-0.305000,29.38
0.155392,0.354000,-0.268000,-0.919000,0.168000,7.679000,-2.015000,29.42
0.155837,0.382000,-0.246000,-0.933000,7.832000,15.069000,-2.489000,29.42
0.156265,0.284000,-0.229000,-0.956000,10.000000,25.588000,-2.733000,29.38
0.156684,0.425000,-0.260000,-0.888000,11.618000,11.863000,1.863000,29.38
0.157107,0.382000,-0.294000,-0.866000,12.550000,8.153000,2.947000,29.42
0.157531,0.362000,-0.309000,-0.833000,8.015000,4.977000,2.214000,29.33
0.157942,0.378000,-0.330000,-0.843000,4.504000,8.214000,0.198000,29.38
0.158358,0.384000,-0.332000,-0.836000,0.244000,11.634000,-1.847000,29.38
0.158769,0.387000,-0.321000,-0.837000,-3.542000,8.733000,-4.076000,29.33
0.159187,0.406000,-0.345000,-0.837000,-8.641000,5.038000,-5.939000,29.33
0.159708,0.406000,-0.314000,-0.844000,-12.214000,1.542000,-7.267000,29.38
0.160264,0.382000,-0.310000,-0.832000,-15.588000,1.008000,-8.000000,29.28
0.160719,0.378000,-0.297000,-0.857000,-17.237000,2.336000,-9.008000,29.33
0.161161,0.402000,-0.275000,-0.860000,-17.298000,6.351000,-9.969000,29.28
0.161621,0.404000,-0.243000,-0.891000,-19.206000,7.160000,-9.542000,29.28
0.162095,0.414000,-0.236000,-0.891000,-15.893000,7.725000,-8.550000,29.38
0.162580,0.394000,-0.262000,-0.873000,-13.511000,5.664000,-7.634000,29.33
0.163068,0.409000,-0.260000,-0.871000,-13.267000,4.412000,-7.435000,29.33
0.163522,0.392000,-0.265000,-0.892000,-12.458000,3.740000,-7.466000,29.38
0.163945,0.393000,-0.222000,-0.892000,-12.443000,4.916000,-6.855000,29.38
0.164368,0.403000,-0.241000,-0.874000,-12.183000,5.863000,-6.366000,29.33
0.164783,0.394000,-0.244000,-0.904000,-10.489000,3.618000,-6.427000,29.33
0.165207,0.412000,-0.239000,-0.883000,-10.992000,3.282000,-5.863000,29.28
0.165628,0.418000,-0.226000,-0.880000,-11.481000,1.710000,-5.710000,29.38
0.166052,0.400000,-0.245000,-0.882000,-12.076000,-0.779000,-5.695000,29.24
0.166475,0.417000,-0.243000,-0.940000,-12.366000,-2.092000,-5.206000,29.33
0.166911,0.399000,-0.238000,-0.880000,-13.359000,-0.885000,-5.267000,29.38
0.167348,0.409000,-0.230000,-0.886000,-13.267000,-0.504000,-5.359000,29.38
0.167784,0.414000,-0.236000,-0.896000,-12.565000,-0.702000,-4.870000,29.33
0.168239,0.418000,-0.238000,-0.896000,-12.382000,-1.221000,-4.305000,29.38
0.168684,0.407000,-0.233000,-0.898000,-11.588000,-2.351000,-3.420000,29.28
0.169145,0.396000,-0.245000,-0.885000,-11.023000,-2.763000,-3.252000,29.38
0.169664,0.404000,-0.248000,-0.871000,-10.458000,-1.557000,-3.420000,29.33
0.170194,0.393000,-0.250000,-0.879000,-10.168000,-1.466000,-3.634000,29.33
0.170649,0.397000,-0.267000,-0.882000,-10.794000,-1.542000,-4.458000,29.28
0.171098,0.395000,-0.266000,-0.875000,-11.847000,-1.282000,-5.221000,29.38
0.171550,0.404000,-0.258000,-0.891000,-13.756000,-1.206000,-6.351000,29.33
0.172070,0.413000,-0.252000,-0.893000,-15.099000,-2.763000,-6.916000,29.33
0.172559,0.425000,-0.238000,-0.914000,-15.282000,-4.763000,-7.206000,29.38
0.173023,0.437000,-0.258000,-0.921000,-15.573000,-6.519000,-7.557000,29.38
0.173481,0.457000,-0.298000,-0.914000,-17.863000,-9.420000,-8.336000,29.33
0.173947,0.483000,-0.293000,-0.943000,-19.618000,-11.435000,-8.092000,29.24
0.174397,0.473000,-0.312000,-0.900000,-21.802000,-14.244000,-6.656000,29.38
0.174836,0.438000,-0.296000,-0.894000,-24.992000,-19.878000,-4.260000,29.28
0.175306,0.392000,-0.303000,-0.896000,-25.359000,-18.855000,-3.084000,29.33
0.175750,0.340000,-0.303000,-0.883000,-29.191000,-19.069000,-1.557000,29.28
0.176180,0.292000,-0.365000,-0.878000,-27.359000,-14.015000,-4.275000,29.38
0.176611,0.373000,-0.377000,-0.870000,-31.756000,-9.664000,-9.939000,29.38
0.177057,0.296000,-0.390000,-0.843000,-32.550000,3.878000,-18.992000,29.33
0.177512,0.376000,-0.066000,-0.965000,-36.489000,22.244000,-33.206000,29.33
0.177956,-0.049000,0.844000,-1.144000,-31.008000,18.656000,-84.794000,29.38
0.178459,0.366000,-0.202000,-1.299000,18.183000,37.588000,-135.466000,29.28
0.178911,0.594000,-1.023000,-1.219000,46.595000,9.710000,-137.603000,29.33
0.179353,0.681000,-1.642000,-0.999000,60.641000,-31.069000,-89.649000,29.33
0.179909,0.895000,-1.624000,-0.670000,80.962000,-1.389000,-29.908000,29.38
0.180504,0.431000,-1.531000,-0.520000,91.496000,-14.214000,14.397000,29.38
0.181040,0.202000,-1.148000,-0.548000,83.313000,2.153000,42.824000,29.33
0.181511,0.071000,-0.737000,-0.588000,87.389000,29.939000,49.359000,29.33
0.181966,0.019000,-0.555000,-0.785000,82.366000,29.130000,50.962000,29.38
0.182424,0.053000,-0.433000,-0.887000,83.725000,23.282000,46.855000,29.38
0.182866,0.065000,-0.316000,-0.905000,79.420000,-0.962000,43.863000,29.28
0.183332,0.109000,-0.207000,-0.846000,76.763000,-12.015000,39.954000,29.33
0.183781,0.198000,-0.156000,-0.839000,53.786000,10.443000,35.191000,29.42
0.184262,0.302000,-0.098000,-0.728000,50.351000,-10.947000,31.084000,29.38
0.184729,0.336000,-0.065000,-0.746000,46.397000,-12.214000,22.733000,29.28
0.185177,0.366000,-0.063000,-0.685000,40.626000,-7.008000,15.405000,29.24
0.185633,0.407000,-0.060000,-0.635000,44.122000,-5.756000,10.397000,29.28
0.186072,0.403000,-0.064000,-0.495000,51.115000,7.237000,7.038000,29.28
0.186500,0.774000,-0.505000,-0.178000,-77.756000,-8.122000,16.595000,29.38
0.186931,0.310000,1.001000,-0.595000,-106.550000,10.794000,5.282000,29.42
0.187374,0.729000,0.718000,-0.678000,-143.176000,43.802000,-21.786000,29.42
0.187810,-0.051000,3.308000,-1.277000,-221.634000,46.504000,-66.794000,29.38
0.188261,0.082000,2.206000,-2.969000,-163.099000,44.305000,-60.214000,29.28
0.188834,0.482000,-0.414000,-1.548000,-61.313000,-25.557000,-31.084000,29.33
0.189314,0.924000,-1.608000,-0.716000,-19.237000,-86.168000,-6.305000,29.33
0.189764,0.659000,-0.686000,-1.039000,-19.649000,-80.275000,-15.878000,29.38
0.190198,0.064000,0.415000,-1.271000,-8.748000,-13.313000,-20.412000,29.28
0.190636,0.592000,-0.427000,-0.926000,-28.809000,43.252000,-14.702000,29.33
0.191237,0.491000,-0.171000,-0.946000,-31.206000,44.550000,-7.664000,29.33
0.191732,0.486000,-0.176000,-1.107000,-5.664000,5.420000,-4.229000,29.28
0.192208,0.500000,-0.298000,-0.835000,6.947000,8.321000,-2.565000,29.38
0.192682,0.449000,-0.293000,-0.890000,10.550000,1.939000,-4.931000,29.33
0.193194,0.436000,-0.245000,-0.854000,-1.649000,8.076000,-6.595000,29.38
0.193735,0.412000,-0.166000,-0.953000,-7.511000,14.504000,-7.160000,29.28
0.194196,0.438000,-0.137000,-0.940000,-9.344000,9.053000,-4.046000,29.28
0.194642,0.396000,-0.138000,-0.940000,-4.122000,-0.153000,-1.542000,29.33
0.195086,0.379000,-0.160000,-0.919000,3.023000,-3.023000,-0.214000,29.33
0.195528,0.372000,-0.173000,-0.912000,8.244000,5.511000,-0.229000,29.38
0.195966,0.376000,-0.161000,-0.916000,7.771000,7.511000,0.794000,29.38
0.196401,0.384000,-0.163000,-0.911000,9.267000,8.092000,1.878000,29.33
0.196890,0.382000,-0.175000,-0.916000,10.015000,8.656000,2.840000,29.33
0.197495,0.392000,-0.172000,-0.900000,9.038000,8.656000,3.969000,29.38
0.197955,0.389000,-0.201000,-0.885000,7.374000,7.832000,3.893000,29.38
0.198378,0.396000,-0.238000,-0.881000,6.260000,7.710000,2.794000,29.38
0.198796,0.409000,-0.232000,-0.883000,4.427000,6.931000,2.168000,29.24
0.199207,0.403000,-0.227000,-0.880000,3.359000,5.405000,1.420000,29.33
0.199619,0.408000,-0.231000,-0.878000,2.244000,4.015000,0.992000,29.28
0.200029,0.398000,-0.228000,-0.889000,0.992000,2.855000,0.779000,29.38
0.200442,0.408000,-0.211000,-0.895000,-0.779000,2.672000,0.244000,29.33
0.200910,0.398000,-0.203000,-0.898000,-0.901000,1.313000,0.382000,29.24
0.201437,0.389000,-0.201000,-0.886000,-1.008000,0.168000,0.412000,29.38
0.201883,0.378000,-0.225000,-0.874000,-1.466000,0.580000,-0.275000,29.28
0.202322,0.365000,-0.215000,-0.876000,-2.412000,2.458000,-1.267000,29.33
0.202761,0.361000,-0.231000,-0.881000,-4.107000,5.420000,-2.366000,29.28
0.203255,0.378000,-0.211000,-0.883000,-5.008000,7.557000,-3.130000,29.28
0.203752,0.389000,-0.194000,-0.906000,-4.565000,8.015000,-3.130000,29.28
0.204248,0.403000,-0.188000,-0.892000,-3.450000,6.809000,-2.458000,29.24
0.204694,0.400000,-0.192000,-0.887000,-2.595000,6.962000,-1.847000,29.33
0.205156,0.403000,-0.196000,-0.907000,-2.046000,7.267000,-1.420000,29.28
0.205657,0.412000,-0.186000,-0.902000,-2.305000,6.702000,-0.763000,29.28
0.206114,0.406000,-0.193000,-0.887000,-2.000000,5.099000,-0.122000,29.33
0.206531,0.403000,-0.189000,-0.894000,-1.328000,4.870000,0.275000,29.33
0.206941,0.399000,-0.194000,-0.887000,-1.115000,3.985000,0.458000,29.28
0.207350,0.393000,-0.205000,-0.888000,-1.725000,3.649000,0.061000,29.38
0.207788,0.400000,-0.209000,-0.883000,-2.458000,4.305000,-0.321000,29.24
0.208215,0.403000,-0.202000,-0.888000,-2.947000,4.397000,-0.580000,29.33
0.208638,0.411000,-0.204000,-0.897000,-2.794000,3.405000,-0.397000,29.38
0.209050,0.396000,-0.194000,-0.896000,-2.458000,2.351000,-0.290000,29.28
0.209468,0.407000,-0.194000,-0.892000,-2.214000,2.321000,-0.214000,29.28
0.209906,0.406000,-0.195000,-0.896000,-1.725000,2.061000,-0.015000,29.33
0.210319,0.394000,-0.197000,-0.883000,-1.649000,1.298000,-0.107000,29.42
0.210738,0.379000,-0.202000,-0.886000,-1.527000,2.672000,-0.504000,29.38
0.211333,0.390000,-0.206000,-0.877000,-1.298000,4.305000,-0.870000,29.28
0.211821,0.389000,-0.211000,-0.887000,-1.481000,3.939000,-1.298000,29.24
0.212257,0.386000,-0.214000,-0.879000,-2.397000,3.939000,-2.015000,29.28
0.212739,0.395000,-0.219000,-0.887000,-3.344000,4.931000,-2.595000,29.38
0.213194,0.397000,-0.218000,-0.889000,-3.954000,4.855000,-3.053000,29.38
0.213622,0.398000,-0.200000,-0.886000,-4.443000,3.786000,-3.130000,29.33
0.214029,0.398000,-0.214000,-0.885000,-4.443000,4.061000,-3.496000,29.33
0.214448,0.407000,-0.195000,-0.887000,-4.641000,4.473000,-3.771000,29.28
0.214863,0.403000,-0.190000,-0.890000,-4.580000,4.076000,-3.435000,29.28
0.215272,0.396000,-0.192000,-0.894000,-4.519000,3.160000,-3.237000,29.42
0.215682,0.393000,-0.193000,-0.886000,-4.702000,3.435000,-3.282000,29.33
0.216091,0.403000,-0.194000,-0.893000,-4.794000,3.817000,-3.191000,29.28
0.216498,0.401000,-0.189000,-0.893000,-5.145000,3.634000,-3.389000,29.28
0.216910,0.400000,-0.194000,-0.893000,-5.237000,3.176000,-3.145000,29.33
0.217314,0.399000,-0.197000,-0.883000,-5.405000,3.405000,-3.481000,29.33
0.217726,0.400000,-0.203000,-0.882000,-6.458000,3.420000,-3.740000,29.28
0.218156,0.399000,-0.202000,-0.887000,-8.183000,2.870000,-4.397000,29.28
0.218579,0.387000,-0.195000,-0.875000,-11.435000,1.908000,-5.221000,29.33
0.218994,0.397000,-0.216000,-0.872000,-13.542000,0.901000,-6.000000,29.28
0.219402,0.402000,-0.188000,-0.893000,-13.832000,1.130000,-6.763000,29.28
0.219816,0.391000,-0.188000,-0.888000,-14.122000,1.237000,-7.237000,29.47
0.220229,0.395000,-0.184000,-0.896000,-13.344000,0.855000,-7.191000,29.33
0.220644,0.398000,-0.190000,-0.902000,-13.023000,1.466000,-7.038000,29.33
0.221152,0.400000,-0.167000,-0.897000,-11.771000,2.656000,-6.824000,29.28
0.221696,0.406000,-0.174000,-0.911000,-11.053000,3.588000,-6.351000,29.28
0.222202,0.402000,-0.164000,-0.897000,-10.000000,4.000000,-5.893000,29.33
0.222715,0.408000,-0.163000,-0.899000,-9.084000,4.397000,-5.527000,29.33
0.223177,0.406000,-0.164000,-0.899000,-9.038000,4.733000,-5.359000,29.28
0.224501,0.405000,-0.159000,-0.897000,-8.687000,4.687000,-5.435000,29.38
0.224976,0.411000,-0.168000,-0.896000,-8.901000,4.748000,-5.237000,29.33
0.225424,0.407000,-0.171000,-0.895000,-9.008000,4.168000,-5.374000,29.24
0.225868,0.408000,-0.163000,-0.894000,-8.626000,3.511000,-4.962000,29.28
0.226310,0.405000,-0.162000,-0.883000,-8.473000,3.084000,-5.008000,29.38
0.226834,0.403000,-0.168000,-0.902000,-8.687000,2.687000,-4.901000,29.24
0.227298,0.404000,-0.166000,-0.895000,-8.595000,2.794000,-5.405000,29.28
0.227741,0.407000,-0.167000,-0.894000,-8.962000,3.069000,-5.664000,29.38
0.228176,0.402000,-0.149000,-0.895000,-9.176000,2.931000,-5.969000,29.38
0.228615,0.411000,-0.151000,-0.896000,-8.901000,2.763000,-5.863000,29.42
0.229072,0.409000,-0.152000,-0.901000,-8.183000,2.672000,-5.252000,29.33
0.229518,0.411000,-0.145000,-0.902000,-7.389000,2.382000,-4.779000,29.28
0.229988,0.406000,-0.149000,-0.891000,-6.580000,1.817000,-4.443000,29.38
0.230436,0.397000,-0.143000,-0.897000,-6.260000,1.893000,-4.534000,29.33
0.230895,0.402000,-0.153000,-0.891000,-6.153000,2.382000,-4.901000,29.33
0.231343,0.396000,-0.156000,-0.895000,-6.076000,2.473000,-5.420000,29.28
0.231772,0.406000,-0.170000,-0.900000,-6.595000,2.626000,-6.137000,29.38
0.232197,0.406000,-0.141000,-0.905000,-6.321000,2.824000,-6.305000,29.33
0.232616,0.415000,-0.132000,-0.901000,-5.847000,2.855000,-5.847000,29.33
0.233035,0.402000,-0.140000,-0.904000,-4.824000,2.305000,-5.450000,29.28
0.233451,0.401000,-0.129000,-0.901000,-4.092000,3.374000,-5.649000,29.28
0.233886,0.413000,-0.149000,-0.883000,-4.519000,3.282000,-5.252000,29.33
0.234316,0.395000,-0.138000,-0.897000,-4.489000,3.893000,-5.405000,29.28
0.234734,0.411000,-0.139000,-0.899000,-4.443000,4.489000,-5.008000,29.28
0.235152,0.406000,-0.130000,-0.898000,-4.397000,4.443000,-4.870000,29.38
0.235597,0.409000,-0.124000,-0.902000,-4.107000,4.977000,-4.321000,29.33
0.236017,0.406000,-0.128000,-0.905000,-3.328000,4.794000,-4.153000,29.42
0.236437,0.408000,-0.138000,-0.902000,-3.603000,4.763000,-3.634000,29.28
0.236851,0.406000,-0.139000,-0.893000,-3.221000,3.878000,-3.466000,29.28
0.237265,0.403000,-0.143000,-0.895000,-3.206000,4.031000,-3.634000,29.42
0.237682,0.412000,-0.149000,-0.878000,-4.031000,5.145000,-3.832000,29.24
0.238106,0.405000,-0.129000,-0.899000,-3.374000,3.496000,-3.313000,29.28
0.238526,0.407000,-0.137000,-0.897000,-3.328000,4.763000,-3.313000,29.28
0.239048,0.417000,-0.133000,-0.898000,-2.595000,4.656000,-3.008000,29.33
0.239503,0.417000,-0.126000,-0.904000,-2.214000,4.947000,-2.702000,29.33
0.239933,0.407000,-0.123000,-0.891000,-1.527000,5.115000,-2.092000,29.28
0.240347,0.398000,-0.119000,-0.913000,-0.626000,4.626000,-2.168000,29.38
0.240761,0.424000,-0.136000,-0.920000,-0.779000,4.443000,-1.344000,29.33
0.241177,0.418000,-0.130000,-0.901000,-1.176000,4.275000,-1.374000,29.38
0.241595,0.413000,-0.130000,-0.900000,-1.527000,4.412000,-0.809000,29.28
0.242010,0.417000,-0.133000,-0.904000,-0.763000,4.718000,-0.748000,29.28
0.242413,0.418000,-0.115000,-0.903000,0.244000,4.290000,0.076000,29.33
0.242819,0.407000,-0.128000,-0.891000,0.809000,4.321000,0.290000,29.33
0.243227,0.412000,-0.137000,-0.894000,1.145000,4.779000,0.565000,29.28
0.243639,0.417000,-0.129000,-0.904000,1.603000,4.611000,0.763000,29.38
0.244060,0.412000,-0.123000,-0.895000,2.397000,4.702000,1.725000,29.33
0.244480,0.419000,-0.120000,-0.901000,4.260000,4.565000,2.595000,29.33
0.244895,0.420000,-0.119000,-0.901000,6.947000,5.511000,3.878000,29.38
0.245311,0.413000,-0.102000,-0.902000,9.908000,6.275000,5.527000,29.28
0.245719,0.417000,-0.115000,-0.902000,12.885000,6.733000,7.053000,29.33
0.246129,0.421000,-0.121000,-0.913000,16.244000,8.260000,8.321000,29.33
0.246541,0.418000,-0.109000,-0.898000,20.061000,8.977000,9.542000,29.28
0.246973,0.448000,-0.105000,-0.930000,24.626000,9.618000,10.321000,29.28
0.247407,0.476000,-0.095000,-0.975000,32.550000,11.344000,11.771000,29.24
0.247839,0.539000,-0.049000,-1.005000,46.260000,13.282000,16.809000,29.33
0.248257,0.555000,0.016000,-1.025000,61.695000,11.191000,24.275000,29.28
0.248671,0.628000,-0.016000,-1.156000,81.405000,6.397000,34.656000,29.28
0.249174,0.451000,0.076000,-1.033000,89.924000,-5.771000,42.321000,29.33
0.249613,0.497000,-0.115000,-0.955000,111.053000,-10.855000,47.695000,29.33
0.250035,0.422000,-0.394000,-0.901000,146.260000,13.969000,40.489000,29.28
0.250464,0.393000,-0.298000,-0.906000,129.817000,-17.420000,43.160000,29.28
0.250890,0.420000,-0.418000,-0.833000,123.084000,-20.672000,39.359000,29.33
0.251314,0.373000,-0.420000,-0.886000,110.672000,-13.573000,31.344000,29.24
0.251746,0.384000,-0.612000,-0.803000,101.954000,-6.427000,25.649000,29.28
0.252170,0.332000,-0.649000,-0.610000,87.557000,-12.992000,20.763000,29.38
0.252590,0.279000,-0.552000,-0.610000,67.847000,-16.977000,16.305000,29.33
0.253009,0.332000,-0.502000,-0.708000,44.809000,-12.870000,11.221000,29.33
0.253424,0.319000,-0.460000,-0.634000,23.542000,-14.641000,7.695000,29.24
0.254168,0.345000,-0.570000,-0.675000,3.450000,-12.565000,3.267000,29.38
0.254723,0.271000,-0.595000,-0.535000,-20.504000,-11.573000,-2.183000,29.33
0.259554,0.052000,-0.610000,-0.535000,-45.374000,-8.992000,-10.992000,29.24
0.269567,-0.302000,-0.639000,-0.439000,-68.824000,-1.985000,-28.107000,29.28
0.279620,-0.254000,-0.740000,-0.755000,-82.458000,38.565000,-48.947000,29.19
0.289662,-0.197000,-0.458000,-0.976000,-96.763000,53.298000,-74.122000,29.28
0.299603,-0.908000,-0.032000,-1.899000,-62.885000,88.137000,-129.008000,29.33
0.309631,-0.168000,-1.605000,-2.251000,-23.634000,107.191000,-71.115000,29.38
0.319672,0.278000,-2.495000,-1.369000,-30.733000,47.313000,-33.053000,29.28
0.329662,-0.561000,-1.888000,-1.128000,-62.321000,68.519000,2.992000,29.28
0.339732,-0.779000,-1.135000,-1.218000,-31.542000,73.634000,11.099000,29.24
0.349739,-0.856000,-1.178000,-1.327000,-2.412000,48.779000,13.679000,29.24
0.359733,-0.887000,-1.095000,-1.157000,-2.824000,42.061000,15.573000,29.28
0.369693,-0.923000,-0.791000,-1.217000,6.366000,12.031000,17.084000,29.28
0.379698,-0.906000,-0.538000,-1.155000,19.344000,-14.443000,15.191000,29.33
0.389821,-0.800000,-0.448000,-1.084000,24.382000,-33.099000,10.962000,29.38
0.400184,-0.564000,-0.414000,-1.127000,22.321000,-50.290000,10.336000,29.28
0.409770,-0.321000,-0.383000,-1.162000,20.351000,-62.260000,16.855000,29.33
0.419746,-0.112000,-0.384000,-1.097000,19.771000,-70.000000,27.618000,29.24
0.429774,0.131000,-0.339000,-1.091000,17.420000,-81.221000,45.191000,29.28
0.439778,0.308000,-0.258000,-0.938000,5.008000,-75.939000,64.031000,29.38
0.449850,0.396000,-0.111000,-0.818000,-0.260000,-78.153000,79.802000,29.33
0.459809,0.463000,0.017000,-0.790000,-9.405000,-64.519000,88.916000,29.33
0.469845,0.576000,0.046000,-0.890000,-11.802000,-58.061000,92.916000,29.28
0.479876,0.665000,0.114000,-1.019000,-15.115000,-49.939000,95.878000,29.38
0.490094,0.714000,0.115000,-1.040000,-10.244000,-48.107000,95.710000,29.33
0.499826,0.738000,0.146000,-1.037000,-2.779000,-57.145000,92.351000,29.24
0.509865,0.710000,0.193000,-0.914000,-1.130000,-61.924000,83.344000,29.28
0.519906,0.693000,0.251000,-0.822000,0.550000,-61.405000,66.611000,29.28
0.529789,0.733000,0.228000,-0.876000,2.000000,-55.008000,47.130000,29.33
0.539819,0.821000,0.148000,-1.011000,5.267000,-55.069000,29.145000,29.33
0.550025,0.826000,0.125000,-1.019000,12.229000,-64.305000,14.992000,29.28
0.560161,0.762000,0.104000,-0.882000,20.107000,-72.855000,-0.229000,29.28
0.570235,0.741000,0.080000,-0.770000,23.939000,-73.542000,-15.878000,29.24
0.580169,0.780000,0.051000,-0.687000,22.794000,-65.710000,-29.847000,29.28
0.590126,0.866000,0.070000,-0.667000,24.504000,-58.336000,-40.076000,29.28
0.600070,0.933000,0.133000,-0.651000,29.038000,-52.672000,-50.840000,29.28
0.609967,1.031000,0.143000,-0.647000,32.214000,-44.198000,-62.824000,29.24
0.619678,1.117000,0.136000,-0.658000,32.763000,-46.214000,-74.153000,29.24
0.629745,1.166000,0.231000,-0.625000,34.672000,-54.901000,-84.748000,29.28
0.639773,1.161000,0.260000,-0.491000,36.580000,-58.244000,-96.351000,29.38
0.649706,1.217000,0.141000,-0.453000,33.786000,-63.695000,-103.664000,29.33
0.659613,1.244000,0.011000,-0.432000,25.282000,-60.504000,-99.405000,29.33
0.669668,1.290000,-0.195000,-0.400000,15.939000,-56.061000,-81.099000,29.28
0.679760,0.498000,-0.419000,0.009000,33.374000,-61.847000,-51.191000,29.38
0.689612,-0.121000,-0.787000,0.674000,69.069000,-58.351000,-18.748000,29.24
0.699695,1.245000,-1.008000,-0.734000,14.550000,185.374000,-5.725000,29.33
0.709731,0.506000,-1.656000,-1.154000,6.061000,95.206000,18.809000,29.28
0.719649,0.135000,-1.020000,-0.931000,16.962000,44.153000,-9.237000,29.38
0.729686,0.328000,-0.439000,-1.132000,-1.557000,92.824000,-22.534000,29.33
0.739706,0.621000,0.148000,-1.952000,-10.244000,93.832000,-26.153000,29.28
0.749712,0.294000,0.396000,-2.009000,6.061000,62.855000,-34.565000,29.28
0.759780,0.143000,0.080000,-1.276000,27.282000,35.435000,-41.267000,29.28
0.769713,0.224000,-0.453000,-0.713000,42.718000,20.824000,-37.435000,29.33
0.779693,0.197000,-0.519000,-0.519000,44.840000,25.191000,-34.763000,29.33
0.789778,0.279000,-0.476000,-0.708000,27.008000,50.901000,-40.885000,29.28
0.799667,0.587000,-0.518000,-0.890000,7.725000,49.771000,-39.664000,29.28
0.809638,0.630000,-0.506000,-0.979000,0.672000,53.664000,-33.450000,29.33
0.819659,0.631000,-0.642000,-1.072000,-4.702000,36.580000,-25.023000,29.33
0.829688,0.593000,-0.677000,-0.875000,-11.252000,10.107000,-14.977000,29.47
0.839660,0.465000,-0.647000,-0.860000,-17.374000,-6.870000,-9.863000,29.28
0.849598,0.360000,-0.552000,-0.830000,-24.092000,-7.053000,-8.916000,29.33
0.860548,0.341000,-0.501000,-0.741000,-31.267000,3.679000,-9.649000,29.33
0.871118,0.283000,-0.482000,-0.733000,-34.122000,15.420000,-10.977000,29.19
0.879650,0.207000,-0.440000,-0.725000,-35.924000,19.527000,-13.466000,29.38
0.889624,0.196000,-0.426000,-0.679000,-47.176000,18.168000,-15.863000,29.19
0.899573,0.132000,-0.361000,-0.642000,-57.756000,15.298000,-18.107000,29.24
0.909596,0.168000,-0.434000,-0.630000,-77.038000,2.305000,-20.870000,29.24
0.919623,0.343000,-0.544000,-0.810000,-100.137000,22.260000,-23.115000,29.28
0.929588,0.377000,-0.408000,-0.888000,-102.931000,31.389000,-25.145000,29.38
0.939708,0.383000,-0.322000,-0.979000,-96.122000,35.374000,-26.916000,29.33
0.949664,0.426000,-0.320000,-1.078000,-86.840000,28.794000,-25.206000,29.28
0.959770,0.303000,-0.342000,-0.890000,-79.359000,40.565000,-27.344000,29.28
0.969630,0.445000,-0.232000,-1.116000,-64.580000,25.023000,-24.595000,29.28
0.979627,0.353000,-0.212000,-0.973000,-49.282000,15.008000,-25.878000,29.33
0.989709,0.423000,-0.332000,-0.904000,-52.947000,22.107000,-25.847000,29.33
0.999616,0.368000,-0.263000,-0.933000,-56.947000,33.511000,-29.573000,29.28
1.009632,0.329000,-0.188000,-0.958000,-48.687000,30.305000,-30.275000,29.28
1.019606,0.412000,-0.257000,-0.994000,-48.992000,42.397000,-30.931000,29.33
1.029701,0.388000,-0.264000,-0.946000,-45.634000,45.344000,-34.229000,29.33
1.039599,0.420000,-0.224000,-1.004000,-43.313000,50.809000,-38.366000,29.19
1.049640,0.359000,-0.234000,-0.898000,-41.985000,50.137000,-36.962000,29.28
1.059677,0.427000,-0.282000,-0.901000,-43.908000,41.450000,-36.336000,29.42
1.069601,0.251000,-0.383000,-0.979000,-22.870000,33.786000,-46.840000,29.33
1.079650,0.387000,-0.137000,-0.923000,-37.695000,63.191000,-46.000000,29.38
1.089624,0.431000,-0.351000,-0.924000,-30.107000,84.580000,-38.656000,29.28
1.099663,0.374000,-0.186000,-0.954000,-44.473000,92.916000,-38.947000,29.42
1.109648,0.549000,-0.139000,-0.873000,-57.038000,124.626000,-29.725000,29.28
1.119647,0.414000,-0.145000,-0.911000,-53.221000,137.725000,-32.626000,29.19
1.129795,0.385000,-0.134000,-0.865000,-65.313000,153.145000,-34.076000,29.28
1.139720,0.373000,-0.072000,-0.880000,-71.130000,177.435000,-38.534000,29.24
1.149688,0.314000,-0.027000,-0.841000,-74.305000,180.748000,-41.237000,29.14
1.159624,0.447000,-0.008000,-0.886000,-64.443000,202.229000,-35.252000,29.38
1.169664,0.416000,-0.064000,-0.882000,-58.626000,222.000000,-43.191000,29.38
1.179650,0.547000,-0.117000,-0.803000,-61.878000,236.458000,-53.237000,29.33
1.189668,0.670000,-0.095000,-0.869000,-64.931000,261.252000,-64.962000,29.24
1.199685,0.570000,-0.183000,-0.896000,-60.366000,254.366000,-74.015000,29.19
1.209726,0.969000,-0.229000,-1.027000,-14.885000,210.763000,-31.389000,29.28
1.219710,0.655000,-0.321000,-1.087000,-36.992000,246.916000,-2.901000,29.33
1.229751,0.952000,-0.490000,-1.148000,-9.939000,271.924000,-17.908000,29.33
1.239838,0.989000,-0.313000,-1.344000,19.298000,321.863000,-48.290000,29.38
1.249804,1.586000,-0.493000,-1.887000,51.679000,303.634000,-113.893000,29.38
1.259793,1.615000,-0.377000,-2.061000,58.092000,324.092000,-162.916000,29.24
1.269751,1.102000,-0.396000,-1.881000,-0.137000,320.046000,-216.947000,29.28
1.279781,1.316000,-0.615000,-1.412000,-155.924000,478.870000,-168.168000,29.38
1.289833,1.434000,-0.495000,-2.717000,-13.939000,199.893000,-172.611000,29.28
1.299738,0.875000,-1.074000,-2.521000,-7.008000,265.221000,-154.611000,29.24
1.309722,-0.654000,-4.000000,-2.833000,27.267000,59.618000,-57.206000,29.33
1.319844,1.997000,-4.000000,-4.000000,-97.847000,-117.344000,77.756000,29.28
1.329788,-0.795000,-1.747000,-2.266000,-138.183000,-281.450000,114.427000,29.38
1.339786,-1.374000,-0.468000,-1.231000,-132.733000,-185.771000,80.626000,29.42
1.349761,-1.052000,0.093000,-1.668000,-78.687000,-209.313000,41.252000,29.33
1.359720,-0.781000,-0.244000,-1.780000,-30.855000,-232.901000,-7.588000,29.38
1.369843,-0.544000,-0.724000,-1.445000,-29.420000,-216.595000,-44.427000,29.28
1.379863,-0.314000,-0.731000,-1.302000,-32.122000,-241.420000,-69.298000,29.42
1.389975,-0.138000,-0.530000,-1.292000,-21.237000,-276.931000,-86.046000,29.33
1.399803,0.087000,-0.525000,-1.080000,7.603000,-278.733000,-91.298000,29.28
1.409865,0.406000,-0.647000,-1.062000,51.542000,-293.908000,-83.679000,29.28
1.419838,0.669000,-0.885000,-0.966000,68.626000,-296.565000,-59.649000,29.33
1.429860,0.804000,-1.041000,-0.840000,77.527000,-297.863000,-24.626000,29.33
1.439881,0.899000,-1.035000,-0.879000,80.748000,-288.611000,10.626000,29.28
1.449930,0.951000,-0.911000,-0.938000,93.038000,-276.107000,45.221000,29.38
1.460697,0.977000,-0.784000,-0.921000,110.305000,-265.084000,76.763000,29.24
1.478413,0.987000,-0.683000,-0.891000,126.504000,-251.267000,103.786000,29.33
1.479711,1.012000,-0.570000,-0.897000,137.527000,-234.458000,124.733000,29.28
1.490708,0.990000,-0.370000,-1.034000,148.153000,-217.420000,139.374000,29.28
1.502383,0.943000,-0.111000,-1.181000,162.061000,-198.687000,144.229000,29.24
1.509801,1.004000,-0.014000,-1.277000,172.748000,-190.214000,140.229000,29.24
1.519620,1.075000,0.086000,-1.281000,174.092000,-184.153000,135.405000,29.28
1.529634,1.113000,0.244000,-1.261000,173.511000,-184.351000,124.168000,29.28
1.539582,1.197000,0.414000,-1.304000,180.198000,-181.527000,110.962000,29.24
1.549603,1.377000,0.450000,-1.372000,185.038000,-164.031000,94.580000,29.33
1.559673,1.618000,0.476000,-1.547000,185.450000,-148.015000,80.504000,29.28
1.569573,1.814000,0.581000,-1.551000,188.046000,-147.527000,70.153000,29.28
1.579610,1.926000,0.779000,-1.447000,196.840000,-152.260000,61.115000,29.38
1.589581,1.992000,0.937000,-1.261000,205.679000,-150.763000,56.000000,29.33
1.599660,2.044000,1.073000,-1.105000,206.382000,-142.504000,53.466000,29.33
1.609654,2.084000,1.140000,-1.031000,195.740000,-124.534000,51.420000,29.28
1.619691,2.147000,1.240000,-0.972000,174.260000,-111.756000,48.916000,29.33
1.629768,2.186000,1.329000,-0.817000,152.885000,-103.221000,45.771000,29.33
1.639691,2.220000,1.375000,-0.571000,134.687000,-97.282000,43.099000,29.28
1.649733,2.201000,1.349000,-0.196000,110.504000,-81.710000,40.137000,29.28
1.659768,2.230000,1.285000,0.006000,84.427000,-51.954000,38.397000,29.24
1.669793,2.227000,1.177000,0.054000,55.420000,-14.519000,39.557000,29.24
1.679776,2.197000,1.182000,0.012000,27.954000,29.389000,46.626000,29.33
1.689875,2.064000,1.088000,-0.041000,15.725000,48.840000,50.779000,29.28
1.699834,1.510000,0.868000,1.399000,-46.076000,142.947000,25.542000,29.28
1.709834,0.189000,0.951000,0.924000,-33.298000,121.832000,1.634000,29.24
1.719856,0.927000,-0.087000,-1.854000,-60.473000,140.351000,-34.550000,29.24
1.729961,-0.284000,-0.690000,-2.219000,-51.282000,-13.527000,-28.061000,29.19
1.739808,-0.393000,-0.966000,-0.608000,-27.939000,11.130000,-52.427000,29.19
1.749997,-0.521000,-0.116000,0.124000,-46.305000,41.435000,-77.618000,29.14
1.759840,0.918000,-0.032000,-1.667000,-21.603000,190.229000,-96.183000,29.24
1.769918,1.101000,0.457000,-2.612000,-17.221000,195.939000,-91.649000,29.19
1.780515,0.213000,0.329000,-2.036000,-67.954000,259.008000,-94.794000,29.19
1.789882,0.438000,0.126000,-1.983000,28.183000,77.710000,-90.672000,29.24
1.799998,0.772000,-0.622000,-1.521000,28.870000,31.588000,-62.305000,29.28
1.810088,0.682000,-0.777000,-0.898000,52.611000,-52.000000,-40.992000,29.28
1.820183,0.950000,-1.094000,-0.815000,-0.870000,56.046000,-37.481000,29.28
1.830224,0.808000,-0.986000,-0.901000,-18.366000,30.122000,-27.145000,29.24
1.840197,0.784000,-0.833000,-0.738000,-30.198000,56.809000,-28.229000,29.33
1.850247,0.648000,-0.722000,-0.892000,-45.420000,57.695000,-25.939000,29.28
1.860176,0.562000,-0.636000,-0.805000,-52.031000,31.435000,-23.679000,29.28
1.870307,0.352000,-0.545000,-0.715000,-61.221000,6.290000,-21.939000,29.24
1.880331,0.249000,-0.459000,-0.788000,-73.176000,-6.519000,-23.969000,29.24
1.890230,0.276000,-0.300000,-0.819000,-83.008000,3.710000,-24.977000,29.19
1.900213,0.155000,-0.118000,-0.793000,-93.206000,16.702000,-28.351000,29.19
1.910117,0.324000,-0.353000,-0.866000,-93.740000,33.863000,-32.565000,29.33
1.920213,0.455000,-0.416000,-0.904000,-96.580000,31.450000,-26.260000,29.24
1.930141,0.418000,-0.397000,-0.967000,-85.496000,38.641000,-26.366000,29.28
1.940199,0.491000,-0.438000,-0.876000,-67.282000,20.290000,-25.985000,29.38
1.950236,0.478000,-0.530000,-0.836000,-68.595000,21.206000,-27.725000,29.33
1.960161,0.434000,-0.412000,-0.844000,-76.427000,26.504000,-32.885000,29.28
1.970182,0.461000,-0.300000,-0.990000,-77.389000,29.847000,-34.092000,29.38
1.980282,0.457000,-0.378000,-0.879000,-79.206000,9.588000,-35.939000,29.28
1.990396,0.449000,-0.285000,-0.932000,-82.000000,-3.405000,-36.168000,29.24
2.000156,0.437000,-0.242000,-0.964000,-75.939000,-10.137000,-36.748000,29.24
2.010136,0.388000,-0.162000,-0.936000,-62.214000,-6.351000,-35.695000,29.28
2.019915,0.392000,-0.160000,-0.921000,-52.840000,-3.878000,-32.794000,29.28
2.029813,0.392000,-0.179000,-0.940000,-46.412000,4.351000,-31.985000,29.24
2.039774,0.412000,-0.168000,-0.931000,-41.206000,13.603000,-31.924000,29.33
2.049755,0.393000,-0.189000,-0.905000,-38.183000,19.771000,-29.573000,29.28
2.059743,0.394000,-0.190000,-0.874000,-39.527000,28.122000,-28.748000,29.19
2.069818,0.413000,-0.169000,-0.891000,-37.298000,28.427000,-28.504000,29.33
2.079819,0.395000,-0.183000,-0.925000,-32.153000,24.611000,-28.641000,29.42
2.089869,0.620000,-0.471000,-0.687000,-30.107000,37.969000,-30.809000,29.28
2.099826,0.401000,-0.124000,-0.948000,-26.504000,35.954000,-38.947000,29.28
2.109854,0.439000,-0.253000,-0.915000,-42.000000,46.779000,-36.366000,29.24
2.119957,0.414000,-0.235000,-0.896000,-44.702000,60.977000,-37.053000,29.28
2.129988,0.438000,-0.159000,-0.920000,-50.748000,80.931000,-36.443000,29.28
2.140011,0.426000,-0.166000,-0.926000,-52.198000,92.550000,-33.603000,29.28
2.150058,0.390000,-0.131000,-0.892000,-57.710000,112.565000,-33.542000,29.33
2.160062,0.401000,-0.092000,-0.845000,-62.214000,129.710000,-36.473000,29.24
2.170019,0.394000,-0.042000,-0.844000,-69.496000,155.847000,-40.931000,29.28
2.180076,0.365000,-0.008000,-0.851000,-66.977000,175.725000,-43.359000,29.38
2.190101,0.454000,-0.010000,-0.907000,-56.382000,191.878000,-42.107000,29.24
2.200225,0.419000,-0.014000,-0.881000,-45.664000,200.137000,-42.855000,29.14
2.210187,0.457000,-0.073000,-0.862000,-48.153000,214.504000,-44.855000,29.28
2.220261,0.511000,-0.171000,-0.921000,-37.527000,232.336000,-57.130000,29.19
2.230375,0.559000,-0.244000,-0.988000,-23.206000,249.817000,-70.962000,29.28
2.240332,0.790000,-0.369000,-1.004000,0.748000,239.191000,-20.336000,29.24
2.250385,0.699000,-0.296000,-1.168000,-9.450000,225.847000,-23.557000,29.24
2.260369,1.009000,-0.366000,-1.341000,-12.870000,265.740000,-55.008000,29.28
2.270327,1.045000,-0.385000,-1.958000,-39.893000,325.420000,-114.977000,29.28
2.280413,1.413000,-0.593000,-2.132000,-58.656000,368.504000,-169.450000,29.33
2.290365,1.430000,-0.564000,-2.010000,-86.366000,376.137000,-220.290000,29.14
2.300027,1.396000,-0.650000,-2.539000,-65.893000,367.771000,-256.763000,29.28
2.310051,0.538000,-1.160000,-2.812000,-17.466000,193.557000,-189.038000,29.28
2.320012,-0.107000,-3.949000,-3.062000,17.374000,96.977000,-57.893000,29.33
2.329938,0.690000,-3.503000,-3.145000,-72.351000,-54.290000,28.336000,29.19
2.339955,-1.071000,-2.118000,-1.455000,-117.389000,-201.802000,39.817000,29.28
2.349951,-1.091000,-1.238000,-1.032000,-168.931000,-109.878000,58.168000,29.19
2.360065,-0.838000,-0.969000,-1.809000,-107.863000,-199.237000,41.649000,29.24
2.369997,-0.653000,-0.882000,-1.974000,-46.779000,-194.473000,26.458000,29.24
2.379946,-0.516000,-0.921000,-1.483000,-23.191000,-172.015000,4.748000,29.38
2.389822,-0.312000,-0.926000,-1.204000,-0.489000,-226.397000,-8.214000,29.28
2.400054,-0.114000,-0.781000,-1.032000,3.481000,-240.870000,-20.763000,29.24
2.410075,0.094000,-0.594000,-0.988000,31.038000,-263.374000,-25.710000,29.24
2.420106,0.302000,-0.515000,-0.957000,66.718000,-253.282000,-25.603000,29.19
2.430063,0.458000,-0.545000,-0.947000,98.534000,-236.565000,-19.099000,29.38
2.439982,0.565000,-0.625000,-0.903000,118.122000,-224.519000,-8.214000,29.24
2.450111,0.652000,-0.680000,-0.893000,128.397000,-213.298000,5.573000,29.24
2.460165,0.766000,-0.648000,-0.990000,132.870000,-209.710000,21.664000,29.19
2.470281,0.863000,-0.645000,-0.982000,139.008000,-201.160000,40.718000,29.19
2.480195,0.937000,-0.611000,-1.015000,145.740000,-194.229000,63.634000,29.24
2.489935,0.984000,-0.546000,-1.041000,154.122000,-179.954000,88.031000,29.28
2.500255,1.018000,-0.364000,-1.176000,162.214000,-167.756000,109.267000,29.28
2.510277,1.020000,-0.174000,-1.238000,167.969000,-159.573000,122.321000,29.28
2.520196,0.943000,-0.074000,-1.311000,167.466000,-150.794000,126.748000,29.33
2.530211,0.930000,0.027000,-1.422000,171.771000,-157.206000,126.992000,29.24
2.540069,0.912000,0.113000,-1.531000,177.221000,-153.725000,124.000000,29.28
2.550144,0.930000,0.230000,-1.617000,185.527000,-152.122000,118.840000,29.28
2.560242,1.027000,0.304000,-1.664000,194.336000,-148.534000,111.939000,29.28
2.570222,1.173000,0.403000,-1.677000,199.893000,-148.443000,103.924000,29.24
2.580163,1.328000,0.468000,-1.620000,198.443000,-151.847000,95.939000,29.14
2.590072,1.401000,0.614000,-1.511000,196.061000,-159.893000,85.847000,29.28
2.600071,1.504000,0.800000,-1.404000,193.237000,-162.565000,75.405000,29.19
2.610183,1.571000,0.929000,-1.319000,191.649000,-156.534000,63.237000,29.33
2.620202,1.736000,1.047000,-1.226000,188.260000,-140.061000,54.183000,29.24
2.630190,1.904000,1.106000,-1.125000,180.168000,-122.550000,51.466000,29.19
2.640119,2.039000,1.105000,-0.931000,175.847000,-117.344000,54.885000,29.28
2.650027,2.187000,1.117000,-0.668000,140.534000,-95.969000,63.145000,29.14
2.660203,2.331000,1.121000,-0.364000,93.740000,-61.023000,74.473000,29.24
2.670224,2.333000,1.226000,-0.072000,48.107000,-55.130000,84.198000,29.28
2.680098,2.349000,1.392000,0.041000,20.885000,-29.527000,91.344000,29.28
2.690019,2.318000,1.393000,0.183000,-38.122000,-10.076000,101.695000,29.24
2.700156,2.385000,1.428000,-0.025000,-20.962000,60.565000,100.824000,29.19
2.710397,3.200000,2.295000,-1.224000,-42.046000,76.336000,38.718000,29.28
2.720354,2.261000,2.588000,0.784000,-55.420000,114.076000,-29.634000,29.28
2.730262,0.140000,0.188000,-1.203000,-61.282000,105.695000,-35.832000,29.33
2.740210,0.645000,-0.642000,-3.388000,-90.183000,32.885000,-52.534000,29.24
2.750225,-0.521000,-1.112000,-1.563000,-39.252000,15.359000,-54.153000,29.19
2.760097,-0.486000,-0.953000,0.492000,-41.771000,-39.832000,-67.176000,29.19
2.770302,0.552000,-0.257000,-0.043000,-26.962000,137.786000,-89.053000,29.24
2.780025,1.008000,-0.090000,-1.814000,-42.870000,193.740000,-80.580000,29.24
2.790113,0.592000,0.573000,-2.417000,-26.641000,138.305000,-80.672000,29.28
2.800145,0.169000,0.763000,-1.866000,-11.344000,124.824000,-103.557000,29.19
2.810378,0.628000,-0.054000,-1.683000,20.473000,94.076000,-94.794000,29.33
2.820403,1.016000,-1.104000,-1.083000,-2.656000,93.435000,-70.229000,29.33
2.830367,0.890000,-0.838000,-0.795000,7.313000,37.756000,-45.939000,29.38
2.840296,0.804000,-0.642000,-1.040000,-10.519000,40.397000,-35.145000,29.19
2.850043,0.503000,-0.445000,-0.865000,-33.618000,78.916000,-31.939000,29.33
2.860429,0.747000,-0.689000,-0.858000,-27.145000,58.229000,-23.924000,29.38
2.870322,0.722000,-0.725000,-0.828000,-34.870000,16.672000,-15.542000,29.28
2.879794,0.431000,-0.555000,-0.699000,-48.901000,3.176000,-13.695000,29.19
2.892524,0.278000,-0.476000,-0.742000,-59.954000,4.305000,-17.420000,29.24
2.899783,0.310000,-0.514000,-0.738000,-77.435000,1.878000,-20.718000,29.14
2.909693,0.283000,-0.408000,-0.677000,-91.603000,4.550000,-23.267000,29.28
2.919612,0.300000,-0.415000,-0.795000,-103.450000,14.672000,-26.977000,29.19
2.929562,0.440000,-0.499000,-1.015000,-99.069000,20.489000,-26.351000,29.24
2.939635,0.398000,-0.325000,-0.942000,-90.443000,19.649000,-25.634000,29.24
2.949572,0.466000,-0.402000,-1.010000,-78.519000,19.389000,-27.832000,29.28
2.962765,0.469000,-0.421000,-0.868000,-73.710000,17.359000,-29.481000,29.28
2.969595,0.458000,-0.406000,-0.850000,-75.954000,14.229000,-30.794000,29.24
2.979573,0.481000,-0.409000,-0.939000,-80.351000,15.298000,-33.771000,29.33
2.995058,0.382000,-0.293000,-0.826000,-78.809000,2.168000,-35.389000,29.19
2.999618,0.440000,-0.368000,-0.845000,-82.885000,-1.557000,-38.626000,29.38
3.015851,0.429000,-0.292000,-0.875000,-83.038000,-3.969000,-41.634000,29.24
3.019614,0.332000,-0.114000,-0.719000,-84.183000,7.008000,-40.733000,29.19
3.032518,0.386000,-0.126000,-0.919000,-62.198000,4.168000,-37.115000,29.28
3.054115,0.412000,-0.121000,-0.955000,-51.435000,7.969000,-33.496000,29.28
3.054833,0.425000,-0.114000,-0.972000,-42.443000,8.229000,-30.183000,29.24
3.059865,0.428000,-0.162000,-0.907000,-36.137000,12.840000,-27.191000,29.24
3.069610,0.363000,-0.183000,-0.915000,-31.389000,21.573000,-23.954000,29.19
3.079595,0.427000,-0.120000,-0.891000,-24.534000,27.695000,-22.031000,29.28
3.090006,0.432000,-0.136000,-0.902000,-22.809000,32.168000,-19.328000,29.24
3.100034,0.410000,-0.192000,-0.888000,-19.145000,35.557000,-19.695000,29.24
3.110494,0.134000,0.315000,-1.146000,5.084000,20.824000,-37.847000,29.28
3.122296,0.285000,-0.149000,-0.780000,-24.992000,45.573000,-30.748000,29.28
3.132550,0.389000,-0.300000,-0.854000,-26.275000,56.855000,-26.840000,29.14
3.140191,0.372000,-0.231000,-0.924000,-30.244000,64.687000,-27.893000,29.24
3.159591,0.379000,-0.229000,-0.908000,-40.885000,79.786000,-29.115000,29.19
3.160285,0.499000,-0.216000,-0.880000,-48.550000,101.802000,-29.695000,29.28
3.169776,0.446000,-0.239000,-0.892000,-54.595000,113.588000,-32.656000,29.24
3.179887,0.374000,-0.180000,-0.849000,-62.366000,138.672000,-40.275000,29.19
3.192798,0.387000,-0.090000,-0.812000,-71.221000,165.298000,-47.420000,29.28
3.200624,0.352000,0.008000,-0.852000,-69.634000,190.198000,-48.382000,29.28
3.210783,0.412000,0.030000,-0.899000,-64.779000,208.214000,-42.076000,29.33
3.219743,0.343000,0.016000,-0.882000,-58.244000,226.000000,-45.466000,29.33
3.231638,0.377000,-0.097000,-0.856000,-61.908000,246.198000,-57.191000,29.19
3.242762,0.463000,-0.105000,-0.904000,-64.229000,283.282000,-78.046000,29.19
3.250656,0.753000,-0.308000,-0.992000,-52.183000,285.466000,-54.031000,29.33
3.260548,1.604000,-0.520000,-1.088000,-42.672000,267.359000,39.832000,29.14
3.269953,0.100000,-0.281000,-1.287000,-46.061000,279.053000,-37.863000,29.19
3.280047,1.056000,-0.587000,-1.244000,-103.328000,324.168000,-89.710000,29.19
3.294196,1.306000,-0.695000,-2.014000,-66.107000,397.786000,-162.595000,29.24
3.299928,1.917000,-0.768000,-2.352000,-93.160000,422.779000,-199.527000,29.33
3.309910,2.017000,-0.265000,-2.286000,-124.992000,457.969000,-261.725000,29.19
3.320508,2.090000,-0.695000,-2.545000,-144.519000,481.313000,-291.618000,29.28
3.333010,1.385000,-0.565000,-2.739000,-74.214000,200.137000,-256.763000,29.24
3.339758,-0.700000,-3.734000,-3.070000,19.969000,82.183000,-101.695000,29.24
3.351364,1.716000,-3.930000,-3.967000,-54.229000,-38.275000,18.244000,29.24
3.359852,-0.629000,-2.875000,-1.619000,-120.809000,-173.481000,69.145000,29.28
3.370004,-0.586000,-1.854000,-1.145000,-124.061000,-192.168000,100.885000,29.28
3.381505,-0.518000,-1.352000,-1.526000,-93.725000,-197.008000,134.107000,29.24
3.389629,-0.523000,-1.111000,-1.703000,-25.053000,-187.389000,132.443000,29.38
3.405167,-0.517000,-1.016000,-1.241000,-6.000000,-140.244000,118.748000,29.38
3.409645,-0.483000,-0.864000,-1.122000,4.519000,-177.832000,97.038000,29.19
3.419612,-0.385000,-0.514000,-1.005000,-0.962000,-193.695000,64.870000,29.14
3.432706,-0.257000,-0.193000,-1.088000,19.557000,-219.725000,29.756000,29.19
3.439551,-0.005000,-0.126000,-1.367000,59.191000,-236.031000,3.206000,29.19
3.449588,0.306000,-0.220000,-1.453000,96.107000,-247.328000,-13.817000,29.28
3.459578,0.613000,-0.351000,-1.352000,133.481000,-281.176000,-20.122000,29.24
3.469685,0.692000,-0.514000,-1.259000,144.718000,-266.718000,-20.000000,29.24
3.479936,0.806000,-0.526000,-1.083000,158.580000,-301.069000,-9.939000,29.19
3.489885,0.849000,-0.482000,-0.954000,161.893000,-307.145000,3.618000,29.19
3.513772,0.852000,-0.433000,-0.986000,178.366000,-303.511000,19.557000,29.33
3.515767,0.943000,-0.356000,-1.163000,203.389000,-283.878000,36.855000,29.24
3.521402,0.982000,-0.304000,-1.205000,226.412000,-260.321000,53.954000,29.28
3.529906,0.992000,-0.324000,-1.154000,238.275000,-238.504000,67.481000,29.28
3.540161,1.060000,-0.360000,-1.134000,236.092000,-208.992000,80.305000,29.24
3.549611,1.169000,-0.318000,-1.218000,227.542000,-188.977000,100.076000,29.28
3.559658,1.241000,-0.240000,-1.380000,215.053000,-168.962000,123.221000,29.28
3.569671,1.479000,-0.090000,-1.692000,216.137000,-150.962000,145.450000,29.19
3.579648,1.622000,0.039000,-1.883000,207.847000,-134.351000,164.473000,29.33
3.589633,1.763000,0.277000,-1.931000,207.786000,-146.015000,175.313000,29.33
3.599774,1.875000,0.599000,-1.868000,211.099000,-172.489000,175.328000,29.28
3.610075,1.902000,0.899000,-1.668000,197.252000,-167.160000,163.924000,29.28
3.619742,1.974000,1.101000,-1.564000,189.664000,-169.557000,148.122000,29.33
3.629729,2.720000,1.501000,-2.016000,143.695000,-160.611000,119.420000,29.33
3.639693,2.465000,1.353000,-1.088000,131.557000,-119.802000,120.702000,29.28
3.649697,2.561000,1.586000,-0.894000,141.145000,-94.687000,120.397000,29.28
3.659724,2.568000,1.658000,-0.369000,134.168000,-94.901000,122.916000,29.33
3.669648,2.698000,1.662000,0.167000,88.641000,-100.244000,116.198000,29.24
3.679938,2.509000,1.664000,0.685000,76.809000,-39.191000,99.878000,29.28
3.689698,2.624000,1.858000,0.561000,-1.038000,33.435000,86.672000,29.28
3.699611,2.727000,1.977000,0.656000,-5.496000,47.191000,35.038000,29.33
3.709613,2.994000,2.460000,0.176000,54.977000,-36.672000,14.901000,29.28
3.719618,1.793000,2.282000,0.430000,-79.176000,132.214000,-21.649000,29.28
3.729604,0.873000,0.202000,-2.545000,-95.695000,127.740000,-47.221000,29.19
3.739740,-0.206000,-0.605000,-3.084000,-31.252000,-1.374000,-56.824000,29.24
3.749810,-0.884000,-1.054000,-0.556000,-40.107000,63.969000,-84.168000,29.24
3.759717,-0.214000,-0.093000,-0.423000,-2.031000,-8.656000,-114.122000,29.28
3.769664,1.131000,-0.162000,-0.630000,-27.191000,177.924000,-128.305000,29.28
3.780594,1.505000,-0.236000,-2.332000,-3.893000,169.450000,-101.023000,29.24
3.792133,0.692000,-0.010000,-1.776000,-5.115000,118.061000,-99.954000,29.24
3.799930,1.022000,-0.697000,-1.703000,-27.374000,75.115000,-101.099000,29.28
3.809770,1.034000,-0.841000,-0.927000,-25.389000,53.924000,-66.046000,29.09
3.819754,0.849000,-0.726000,-0.897000,-38.168000,11.160000,-40.092000,29.24
3.829760,0.398000,-0.267000,-0.851000,-47.924000,35.817000,-37.679000,29.24
3.839837,0.498000,-0.399000,-0.810000,-47.145000,40.901000,-37.008000,29.38
3.849853,0.711000,-0.709000,-0.843000,-51.786000,45.710000,-28.397000,29.28
3.859871,0.583000,-0.565000,-0.899000,-45.023000,25.756000,-21.282000,29.24
3.869871,0.376000,-0.453000,-0.850000,-42.519000,19.191000,-21.954000,29.24
3.879859,0.400000,-0.491000,-0.827000,-55.756000,18.397000,-20.794000,29.28
3.889952,0.367000,-0.475000,-0.800000,-61.252000,14.504000,-20.626000,29.19
3.904073,0.292000,-0.431000,-0.740000,-65.832000,4.580000,-21.588000,29.24
3.909764,0.312000,-0.390000,-0.755000,-74.061000,3.313000,-24.183000,29.24
3.919829,0.318000,-0.387000,-0.743000,-88.962000,8.458000,-25.756000,29.19
3.929732,0.374000,-0.481000,-0.859000,-94.473000,18.244000,-28.397000,29.28
3.939834,0.415000,-0.461000,-0.907000,-94.443000,15.450000,-30.718000,29.24
3.949686,0.468000,-0.453000,-0.830000,-93.496000,12.336000,-32.168000,29.24
3.959595,0.484000,-0.420000,-0.902000,-91.313000,7.802000,-31.557000,29.19
3.969873,0.474000,-0.342000,-1.074000,-86.534000,12.229000,-29.130000,29.19
3.979865,0.364000,-0.308000,-0.838000,-73.603000,2.626000,-28.672000,29.14
3.990030,0.413000,-0.307000,-0.887000,-70.718000,6.076000,-29.008000,29.14
4.000031,0.404000,-0.281000,-0.917000,-67.160000,5.985000,-31.282000,29.19
4.009986,0.392000,-0.179000,-0.937000,-64.427000,6.687000,-32.275000,29.19
4.020016,0.439000,-0.184000,-0.947000,-59.115000,10.763000,-33.115000,29.14
4.030005,0.431000,-0.218000,-0.933000,-54.260000,9.069000,-32.290000,29.24
4.040158,0.441000,-0.196000,-0.921000,-49.634000,11.985000,-30.489000,29.28
4.050051,0.419000,-0.151000,-0.899000,-43.405000,14.214000,-27.038000,29.28
4.060067,0.387000,-0.165000,-0.919000,-38.672000,18.626000,-25.985000,29.24
4.070106,0.390000,-0.214000,-0.905000,-35.252000,24.015000,-25.481000,29.33
4.080195,0.426000,-0.224000,-0.872000,-35.649000,33.206000,-25.863000,29.19
4.092868,0.457000,-0.182000,-0.967000,-36.244000,39.603000,-26.840000,29.19
4.100398,0.525000,-0.429000,-0.715000,-20.244000,44.519000,-28.321000,29.24
4.112093,0.461000,-0.173000,-0.927000,-22.870000,41.038000,-33.985000,29.24
4.120488,0.386000,-0.229000,-0.906000,-31.542000,51.802000,-33.618000,29.19
4.129635,0.411000,-0.259000,-0.894000,-37.573000,63.557000,-32.977000,29.28
4.139687,0.479000,-0.157000,-0.920000,-44.092000,84.687000,-32.015000,29.24
4.149654,0.437000,-0.202000,-0.899000,-47.725000,94.458000,-29.359000,29.24
4.159634,0.402000,-0.233000,-0.902000,-52.244000,109.344000,-31.664000,29.28
4.169641,0.405000,-0.175000,-0.866000,-60.672000,134.061000,-37.160000,29.28
4.179743,0.360000,-0.092000,-0.852000,-66.412000,158.122000,-41.863000,29.14
4.189625,0.345000,0.000000,-0.868000,-65.969000,179.740000,-45.191000,29.24
4.199810,0.427000,-0.038000,-0.913000,-60.870000,203.130000,-43.573000,29.19
4.209762,0.382000,-0.012000,-0.858000,-63.466000,217.771000,-46.473000,29.28
4.219771,0.374000,-0.121000,-0.870000,-61.893000,244.214000,-57.053000,29.33
4.229881,0.539000,-0.156000,-0.888000,-60.809000,273.954000,-76.260000,29.24
4.239845,0.451000,-0.179000,-0.899000,-59.359000,285.863000,-94.855000,29.28
4.249880,1.095000,-0.518000,-1.247000,-23.679000,186.000000,-24.763000,29.19
4.259928,0.959000,-0.508000,-1.026000,-30.061000,266.397000,-24.794000,29.14
4.269872,0.825000,-0.515000,-1.682000,-63.786000,319.542000,-96.092000,29.24
4.279986,1.329000,-0.547000,-1.826000,-53.725000,367.298000,-152.916000,29.28
4.289725,1.678000,-0.678000,-2.296000,-65.649000,408.916000,-191.328000,29.19
4.299806,1.864000,-0.331000,-2.236000,-82.855000,428.931000,-242.733000,29.24
4.310067,1.834000,-0.575000,-2.271000,-127.679000,411.618000,-282.107000,29.24
4.320110,1.598000,-0.602000,-2.561000,-81.466000,225.130000,-239.420000,29.19
4.329939,-0.405000,-3.239000,-2.710000,-26.962000,106.855000,-107.985000,29.28
4.340079,1.428000,-3.997000,-3.960000,-62.687000,-17.634000,-0.153000,29.24
4.349995,-0.522000,-3.072000,-2.696000,-214.702000,-114.870000,60.840000,29.24
4.360167,-1.111000,-1.751000,-0.956000,-190.244000,-251.511000,78.641000,29.19
4.370038,-0.854000,-1.021000,-1.567000,-139.588000,-242.275000,79.282000,29.19
4.379866,-0.723000,-0.723000,-1.851000,-50.473000,-262.916000,61.221000,29.24
4.389906,-0.634000,-0.896000,-1.466000,-19.435000,-207.786000,34.397000,29.14
4.399952,-0.392000,-1.001000,-1.416000,2.809000,-228.565000,23.863000,29.28
4.410039,-0.073000,-0.821000,-1.168000,7.099000,-230.779000,4.916000,29.19
4.420113,0.170000,-0.630000,-1.188000,31.328000,-257.939000,-10.198000,29.38
4.429757,0.386000,-0.539000,-1.157000,64.840000,-263.038000,-13.893000,29.24
4.439748,0.567000,-0.518000,-0.993000,90.809000,-268.534000,-9.084000,29.24
4.449774,0.679000,-0.589000,-0.909000,112.137000,-274.427000,-3.313000,29.09
4.459746,0.819000,-0.649000,-0.838000,125.267000,-261.634000,7.450000,29.28
4.469767,0.914000,-0.655000,-0.850000,136.550000,-248.000000,23.649000,29.24
4.479779,0.931000,-0.602000,-0.902000,149.511000,-234.870000,40.061000,29.24
4.489737,0.969000,-0.514000,-0.958000,170.046000,-223.206000,58.000000,29.28
4.499788,1.061000,-0.437000,-1.057000,191.695000,-209.298000,78.458000,29.19
4.509728,1.123000,-0.339000,-1.211000,212.107000,-193.710000,96.580000,29.24
4.519831,1.141000,-0.196000,-1.192000,221.771000,-181.908000,111.344000,29.24
4.529925,1.129000,-0.119000,-1.231000,222.092000,-172.779000,120.473000,29.19
4.539892,1.168000,-0.002000,-1.275000,219.725000,-164.794000,128.702000,29.19
4.550007,1.269000,0.088000,-1.367000,219.588000,-160.550000,135.832000,29.24
4.559925,1.386000,0.144000,-1.501000,215.359000,-150.962000,144.931000,29.19
4.570025,1.601000,0.240000,-1.593000,204.809000,-145.939000,152.885000,29.19
4.580039,1.791000,0.406000,-1.610000,195.237000,-144.031000,157.664000,29.19
4.589859,1.938000,0.539000,-1.569000,191.282000,-152.611000,160.000000,29.33
4.600080,2.008000,0.773000,-1.422000,191.756000,-153.649000,157.313000,29.24
4.610102,2.031000,0.922000,-1.250000,195.588000,-143.389000,153.832000,29.19
4.620112,2.127000,1.005000,-1.064000,195.405000,-131.359000,152.855000,29.19
4.630131,2.247000,1.069000,-0.915000,187.450000,-113.756000,151.588000,29.14
4.640060,2.381000,1.171000,-0.784000,169.603000,-90.824000,146.718000,29.14
4.650043,2.406000,1.349000,-0.582000,139.115000,-74.198000,135.649000,29.19
4.660069,2.338000,1.642000,-0.333000,121.603000,-64.916000,113.618000,29.19
4.670038,2.259000,1.648000,-0.005000,46.122000,-28.260000,93.802000,29.33
4.679959,2.253000,1.752000,0.024000,14.550000,-15.405000,65.817000,29.14
4.689969,2.285000,1.759000,-0.141000,-56.260000,-7.802000,53.634000,29.28
4.700045,2.457000,1.717000,-0.691000,104.656000,-94.305000,-12.122000,29.19
4.710007,1.714000,1.485000,0.499000,118.672000,-128.931000,-46.000000,29.24
4.720068,1.108000,1.543000,0.469000,-81.679000,72.809000,-40.656000,29.19
4.730010,0.746000,-0.168000,-2.170000,-73.573000,112.656000,-67.496000,29.19
4.739927,-0.156000,-1.160000,-2.022000,-58.107000,-2.901000,-51.038000,29.24
4.750030,-0.578000,-1.555000,-0.370000,-34.046000,-34.504000,-61.450000,29.14
4.759801,0.191000,-1.401000,0.191000,-44.626000,-25.878000,-60.718000,29.19
4.769917,0.526000,-0.290000,-0.411000,-33.863000,125.634000,-57.099000,29.19
4.779844,0.675000,0.311000,-1.688000,-21.069000,171.847000,-45.939000,29.14
4.789842,0.261000,0.880000,-2.409000,-16.565000,155.115000,-72.748000,29.24
4.799922,0.189000,0.677000,-2.101000,5.710000,97.710000,-98.992000,29.28
4.809863,0.495000,-0.115000,-1.381000,26.198000,86.656000,-94.534000,29.28
4.819880,0.782000,-0.856000,-1.071000,31.069000,87.038000,-69.176000,29.14
4.829935,0.842000,-0.863000,-0.818000,22.947000,62.427000,-55.908000,29.24
4.840020,0.725000,-0.658000,-0.933000,3.511000,49.664000,-45.771000,29.19
4.849955,0.574000,-0.546000,-0.886000,-26.931000,87.573000,-42.718000,29.28
4.859897,0.870000,-0.823000,-0.930000,-19.405000,61.542000,-31.282000,29.14
4.869994,0.751000,-0.819000,-0.781000,-29.603000,20.855000,-20.901000,29.14
4.880074,0.525000,-0.628000,-0.796000,-44.427000,3.603000,-15.267000,29.19
4.890091,0.394000,-0.447000,-0.832000,-59.099000,5.618000,-16.626000,29.19
4.899737,0.316000,-0.449000,-0.740000,-71.710000,6.137000,-21.069000,29.24
4.909701,0.258000,-0.438000,-0.640000,-88.229000,-10.489000,-22.977000,29.24
4.919779,0.249000,-0.406000,-0.686000,-91.359000,-8.962000,-25.740000,29.09
4.929587,0.272000,-0.490000,-0.827000,-106.977000,24.427000,-27.802000,29.19
4.939672,0.329000,-0.480000,-0.821000,-101.542000,19.282000,-27.878000,29.24
4.949587,0.397000,-0.424000,-0.871000,-99.985000,35.847000,-31.679000,29.24
4.959580,0.439000,-0.449000,-0.998000,-97.771000,31.954000,-33.130000,29.28
4.969598,0.450000,-0.360000,-0.970000,-91.740000,26.031000,-33.237000,29.19
4.979648,0.445000,-0.418000,-0.866000,-85.679000,17.679000,-32.641000,29.24
4.989731,0.465000,-0.409000,-0.887000,-87.817000,2.992000,-32.122000,29.28
4.999643,0.454000,-0.225000,-1.024000,-82.580000,-1.084000,-30.137000,29.09
5.009636,0.391000,-0.340000,-0.862000,-75.466000,-11.939000,-31.145000,29.28
5.019679,0.367000,-0.271000,-0.852000,-73.053000,-9.206000,-32.473000,29.24
5.029699,0.321000,-0.097000,-1.054000,-62.382000,-13.084000,-33.130000,29.24
5.039769,0.430000,-0.260000,-0.866000,-58.840000,3.450000,-37.832000,29.19
5.049711,0.374000,-0.097000,-0.977000,-59.618000,17.420000,-36.321000,29.19
5.059780,0.367000,-0.167000,-0.921000,-48.763000,21.069000,-34.504000,29.33
5.069788,0.394000,-0.105000,-0.984000,-43.435000,26.779000,-33.023000,29.24
5.079781,0.378000,-0.177000,-0.934000,-37.267000,32.244000,-31.374000,29.28
5.089737,0.379000,-0.202000,-0.858000,-38.275000,32.824000,-31.298000,29.19
5.099869,0.410000,-0.168000,-0.920000,-30.733000,32.580000,-31.954000,29.24
5.109822,0.403000,-0.140000,-0.949000,-25.008000,35.832000,-29.649000,29.24
5.119851,0.448000,-0.180000,-0.934000,-23.863000,37.817000,-30.092000,29.19
5.129861,0.254000,-0.073000,-0.918000,-30.809000,42.947000,-42.748000,29.19
5.139924,0.589000,-0.624000,-0.809000,-50.611000,49.664000,-30.901000,29.33
5.150025,0.464000,-0.188000,-0.912000,-35.664000,64.351000,-38.534000,29.24
5.160012,0.403000,-0.095000,-0.890000,-55.863000,89.588000,-34.763000,29.24
5.170041,0.422000,-0.160000,-0.886000,-47.679000,94.397000,-35.756000,29.19
5.180041,0.413000,-0.121000,-0.910000,-55.740000,103.679000,-31.206000,29.19
5.189896,0.393000,-0.092000,-0.910000,-57.160000,131.038000,-32.809000,29.24
5.200022,0.343000,-0.024000,-0.860000,-63.038000,148.489000,-36.000000,29.19
5.209946,0.373000,-0.012000,-0.842000,-64.321000,187.985000,-37.802000,29.19
5.220069,0.392000,-0.013000,-0.856000,-62.992000,214.824000,-39.939000,29.19
5.229902,0.392000,-0.012000,-0.959000,-52.809000,213.359000,-39.893000,29.14
5.240033,0.363000,-0.093000,-0.915000,-43.130000,226.840000,-46.870000,29.24
5.250136,0.477000,-0.158000,-0.892000,-44.214000,243.023000,-57.618000,29.28
5.260027,0.483000,-0.237000,-0.970000,-24.763000,265.557000,-77.038000,29.28
5.270168,1.028000,-0.382000,-0.941000,25.527000,229.435000,-17.588000,29.24
5.279945,0.948000,-0.335000,-1.352000,16.718000,252.122000,-17.099000,29.14
5.290088,0.805000,-0.534000,-1.693000,-2.550000,256.824000,-63.191000,29.19
5.300019,1.273000,-0.498000,-1.986000,-20.244000,336.733000,-122.046000,29.19
5.309980,1.811000,-0.601000,-2.483000,-41.359000,384.504000,-172.748000,29.14
5.320029,1.704000,-0.284000,-2.576000,-77.786000,395.344000,-237.954000,29.14
5.330004,1.496000,-0.426000,-2.894000,-2.473000,287.450000,-205.618000,29.19
5.339921,-0.822000,-4.000000,-3.909000,76.458000,60.504000,-68.168000,29.28
5.350069,1.374000,-4.000000,-2.516000,-45.802000,-110.229000,58.015000,29.05
5.359980,-1.188000,-3.109000,-2.583000,-166.046000,-262.397000,100.611000,29.19
5.370018,-1.418000,-1.465000,-1.457000,-160.534000,-206.107000,111.908000,29.38
5.380102,-1.246000,-1.136000,-2.197000,-75.466000,-294.000000,101.313000,29.19
5.389968,-1.111000,-0.992000,-1.681000,-28.992000,-239.878000,63.282000,29.24
5.399911,-0.939000,-0.959000,-1.175000,-9.756000,-240.351000,23.893000,29.24
5.409981,-0.695000,-0.843000,-0.797000,-8.366000,-233.496000,-8.046000,29.28
5.420039,-0.322000,-0.684000,-0.920000,12.779000,-239.420000,-28.550000,29.19
5.429921,-0.026000,-0.567000,-1.013000,48.153000,-237.023000,-42.137000,29.24
5.440037,0.169000,-0.690000,-0.929000,84.092000,-216.305000,-45.649000,29.24
5.449982,0.373000,-0.789000,-0.822000,111.420000,-208.580000,-39.145000,29.19
5.459965,0.581000,-0.850000,-0.855000,122.794000,-188.595000,-24.779000,29.19
5.470103,0.715000,-0.795000,-0.972000,136.962000,-180.076000,-2.076000,29.14
5.480175,0.803000,-0.812000,-0.989000,147.298000,-177.511000,28.321000,29.14
5.490012,0.810000,-0.712000,-1.004000,150.046000,-172.321000,58.870000,29.19
5.500084,0.801000,-0.520000,-1.095000,156.153000,-161.664000,85.069000,29.28
5.510106,0.798000,-0.335000,-1.193000,161.756000,-142.748000,103.588000,29.24
5.520056,0.786000,-0.168000,-1.353000,166.748000,-127.374000,113.145000,29.19
5.529983,0.855000,-0.056000,-1.564000,165.328000,-120.198000,112.443000,29.09
5.540040,1.004000,-0.010000,-1.773000,161.557000,-129.389000,106.000000,29.19
5.550022,1.116000,0.081000,-1.817000,161.969000,-158.641000,95.649000,29.24
5.559978,1.236000,0.176000,-1.639000,167.023000,-183.908000,83.634000,29.24
5.570026,1.399000,0.175000,-1.421000,176.214000,-195.130000,76.656000,29.19
5.579959,1.560000,0.087000,-1.180000,176.046000,-188.305000,77.450000,29.19
5.589932,1.692000,0.071000,-1.032000,166.534000,-164.382000,86.336000,29.14
5.600037,1.757000,0.214000,-0.976000,156.947000,-139.069000,98.947000,29.14
5.610089,1.792000,0.448000,-0.993000,155.603000,-120.260000,107.878000,29.28
5.620146,1.791000,0.671000,-1.012000,156.427000,-99.695000,109.435000,29.19
5.630038,1.837000,0.889000,-1.012000,158.794000,-84.901000,102.198000,29.14
5.640084,1.861000,1.026000,-0.935000,158.824000,-69.359000,90.611000,29.24
5.649939,1.949000,1.118000,-0.885000,168.885000,-63.405000,79.313000,29.19
5.660115,2.094000,1.160000,-0.862000,158.824000,-39.191000,69.328000,29.28
5.669901,2.140000,1.134000,-0.683000,135.924000,-24.656000,64.366000,29.24
5.680008,2.034000,1.208000,-0.510000,111.237000,-15.282000,55.496000,29.19
5.690082,2.081000,1.237000,-0.293000,80.824000,-15.573000,46.656000,29.19
5.700110,2.062000,1.282000,-0.119000,52.702000,-1.557000,34.107000,29.19
5.710005,2.120000,1.141000,-0.348000,16.824000,-1.405000,30.137000,29.14
5.720073,2.441000,1.223000,-0.572000,201.893000,-98.443000,-12.031000,29.14
5.729926,2.522000,0.145000,0.154000,82.550000,-72.687000,21.649000,29.19
5.740097,1.621000,1.309000,0.454000,-121.023000,96.519000,19.893000,29.19
5.750069,0.260000,0.337000,-1.682000,-78.275000,114.763000,35.267000,29.24
5.759786,0.209000,-0.274000,-2.501000,-74.092000,87.954000,39.802000,29.14
5.770058,-1.145000,-0.030000,-1.385000,-38.412000,18.412000,-1.557000,29.19
5.780145,-0.777000,0.531000,-0.539000,-29.908000,27.221000,-69.328000,29.19
5.789992,0.225000,0.420000,-1.185000,-37.450000,117.252000,-105.847000,29.14
5.800052,0.816000,-0.203000,-1.358000,-15.939000,116.962000,-99.832000,29.24
5.809865,0.834000,-0.397000,-1.665000,-7.298000,107.985000,-87.725000,29.19
5.819750,0.478000,-0.321000,-1.252000,-2.107000,117.206000,-82.595000,29.19
5.829768,0.436000,-0.350000,-1.250000,8.962000,93.221000,-79.053000,29.24
5.839777,0.588000,-0.493000,-1.167000,8.718000,70.107000,-73.802000,29.19
5.849813,0.814000,-0.811000,-0.873000,-5.298000,42.290000,-57.420000,29.19
5.859780,0.622000,-0.787000,-0.620000,-27.420000,64.336000,-50.290000,29.19
5.869821,0.869000,-0.840000,-0.931000,-27.496000,48.931000,-40.779000,29.24
5.879808,0.598000,-0.613000,-0.771000,-48.321000,43.191000,-34.840000,29.14
5.889947,0.447000,-0.617000,-0.757000,-53.313000,32.962000,-30.840000,29.19
5.899941,0.333000,-0.526000,-0.505000,-68.382000,8.015000,-28.809000,29.19
5.909893,0.286000,-0.476000,-0.620000,-95.527000,13.969000,-31.084000,29.14
5.920009,0.288000,-0.511000,-0.666000,-122.885000,19.878000,-34.809000,29.14
5.929935,0.436000,-0.621000,-0.855000,-134.366000,46.183000,-40.595000,29.09
5.940044,0.500000,-0.557000,-1.065000,-128.153000,68.443000,-43.038000,29.28
5.949779,0.505000,-0.249000,-1.139000,-117.985000,59.817000,-39.344000,29.14
5.959687,0.540000,-0.269000,-1.088000,-90.916000,25.573000,-31.679000,29.24
5.969760,0.505000,-0.410000,-0.961000,-78.824000,28.305000,-26.595000,29.19
5.979630,0.534000,-0.366000,-0.997000,-70.244000,41.542000,-15.588000,29.19
5.989624,0.480000,-0.286000,-0.944000,-34.489000,11.695000,-21.466000,29.24
5.999567,0.482000,-0.338000,-0.899000,-29.817000,20.290000,-22.305000,29.28
6.009611,0.438000,-0.395000,-0.806000,-37.450000,25.115000,-24.489000,29.19
6.019575,0.471000,-0.376000,-0.837000,-42.550000,20.763000,-26.626000,29.28
6.029591,0.463000,-0.354000,-0.829000,-45.176000,11.847000,-27.802000,29.24
6.039567,0.434000,-0.345000,-0.823000,-47.832000,6.412000,-28.855000,29.24
6.049546,0.431000,-0.346000,-0.785000,-56.855000,4.550000,-30.397000,29.19
6.059550,0.458000,-0.291000,-0.886000,-53.405000,-1.710000,-31.511000,29.19
6.069583,0.500000,-0.242000,-0.964000,-49.145000,6.580000,-30.504000,29.24
6.079576,0.427000,-0.187000,-0.895000,-42.702000,8.779000,-29.084000,29.24
6.089697,0.422000,-0.214000,-0.907000,-40.702000,10.122000,-27.282000,29.09
6.099647,0.426000,-0.224000,-0.885000,-35.817000,10.382000,-26.672000,29.19
6.109619,0.430000,-0.192000,-0.858000,-33.985000,13.069000,-25.038000,29.14
6.119640,0.423000,-0.186000,-0.869000,-34.427000,17.221000,-23.786000,29.24
6.129688,0.425000,-0.186000,-0.878000,-26.870000,26.489000,-24.305000,29.19
6.139828,0.643000,-0.448000,-0.606000,-25.695000,38.473000,-24.198000,29.19
6.149696,0.455000,-0.110000,-0.939000,-18.336000,35.725000,-30.595000,29.14
6.159735,0.465000,-0.332000,-0.834000,-23.649000,46.046000,-29.679000,29.19
6.169747,0.412000,-0.244000,-0.913000,-24.809000,53.924000,-31.740000,29.19
6.179858,0.425000,-0.348000,-0.872000,-38.183000,71.939000,-31.038000,29.19
6.189810,0.423000,-0.267000,-0.842000,-44.015000,88.366000,-33.160000,29.14
6.199943,0.408000,-0.190000,-0.858000,-47.954000,103.313000,-36.321000,29.14
6.209893,0.434000,-0.189000,-0.844000,-51.206000,124.901000,-40.489000,29.19
6.219923,0.443000,-0.117000,-0.815000,-57.603000,149.756000,-43.023000,29.28
6.230001,0.468000,-0.048000,-0.852000,-59.527000,167.221000,-46.565000,29.24
6.239972,0.469000,-0.018000,-0.874000,-54.901000,186.244000,-38.916000,29.24
6.249964,0.446000,-0.031000,-0.847000,-45.374000,192.947000,-37.130000,29.19
6.260064,0.447000,-0.091000,-0.814000,-44.183000,210.382000,-36.962000,29.19
6.269973,0.428000,-0.164000,-0.846000,-51.496000,230.962000,-44.687000,29.24
6.279899,0.606000,-0.201000,-0.854000,-57.710000,262.366000,-63.435000,29.24
6.289972,0.567000,-0.499000,-1.069000,-57.573000,204.504000,-79.725000,29.19
6.299964,1.238000,-0.293000,-0.760000,-30.214000,232.198000,31.328000,29.28
6.309926,0.960000,-0.400000,-1.239000,-44.901000,295.282000,-5.939000,29.24
6.319993,0.765000,-0.500000,-1.224000,-28.153000,304.550000,-38.733000,29.14
6.329995,1.119000,-0.469000,-1.598000,7.008000,338.916000,-80.824000,29.33
6.340026,1.522000,-0.576000,-1.688000,26.260000,355.511000,-130.137000,29.28
6.349896,1.735000,-0.593000,-2.094000,30.779000,313.023000,-174.916000,29.19
6.360038,1.569000,-0.429000,-1.987000,-3.267000,343.405000,-226.702000,29.14
6.369916,1.234000,-0.389000,-1.723000,-17.405000,339.695000,-306.885000,29.19
6.379803,-0.100000,-0.034000,-3.949000,-160.214000,500.260000,-202.137000,29.19
6.389910,0.553000,-1.832000,-2.541000,-15.206000,153.511000,-131.832000,29.28
6.399969,0.421000,-4.000000,-3.196000,-28.412000,14.763000,20.672000,29.14
6.410040,0.890000,-3.411000,-3.674000,-218.916000,-67.527000,104.504000,29.24
6.419992,-1.823000,-1.458000,-1.067000,-171.405000,-409.725000,108.107000,29.19
6.429916,-1.108000,-0.509000,-1.292000,-151.542000,-244.855000,78.290000,29.28
6.440008,-0.788000,-0.389000,-1.878000,-99.420000,-229.328000,27.985000,29.24
6.450005,-0.502000,-0.892000,-1.935000,-41.588000,-281.878000,-1.298000,29.24
6.459983,-0.175000,-1.162000,-1.838000,-37.405000,-219.420000,-12.748000,29.28
6.469992,0.023000,-1.061000,-1.454000,4.611000,-283.405000,-25.313000,29.19
6.480144,0.183000,-0.805000,-1.334000,34.962000,-317.221000,-42.534000,29.24
6.490201,0.350000,-0.618000,-1.107000,63.069000,-314.443000,-45.588000,29.24
6.499890,0.576000,-0.571000,-1.016000,91.603000,-318.534000,-38.397000,29.19
6.510008,0.723000,-0.603000,-0.855000,116.336000,-325.206000,-30.031000,29.19
6.519996,0.745000,-0.677000,-0.770000,139.267000,-310.153000,-20.550000,29.24
6.529922,0.894000,-0.721000,-0.824000,154.534000,-282.901000,-2.336000,29.19
6.539919,0.977000,-0.681000,-0.970000,165.252000,-260.824000,21.725000,29.19
6.549743,1.005000,-0.611000,-1.108000,178.137000,-243.832000,47.450000,29.19
6.559727,1.042000,-0.438000,-1.201000,195.679000,-233.695000,73.328000,29.24
6.569731,1.048000,-0.263000,-1.278000,212.412000,-218.794000,93.908000,29.24
6.579750,1.068000,-0.130000,-1.328000,223.817000,-213.496000,108.534000,29.28
6.589716,1.119000,-0.097000,-1.357000,223.252000,-203.466000,120.366000,29.19
6.599724,1.179000,-0.121000,-1.419000,207.160000,-178.046000,135.344000,29.14
6.609723,1.317000,-0.065000,-1.577000,201.603000,-174.885000,155.008000,29.24
6.619718,1.515000,0.046000,-1.729000,201.802000,-173.710000,172.244000,29.28
6.629863,1.668000,0.138000,-1.707000,196.290000,-174.870000,185.740000,29.28
6.639997,1.898000,0.250000,-1.649000,190.641000,-176.412000,191.893000,29.14
6.649876,2.044000,0.397000,-1.504000,187.282000,-170.443000,192.550000,29.05
6.659846,2.250000,0.532000,-1.355000,189.618000,-157.725000,191.725000,29.19
6.673095,2.401000,0.650000,-1.156000,192.000000,-141.527000,193.924000,29.19
6.679865,2.528000,0.817000,-0.888000,184.336000,-102.244000,197.908000,29.24
6.689836,2.594000,0.957000,-0.689000,172.855000,-72.443000,201.130000,29.19
6.699725,2.730000,1.318000,-0.397000,145.511000,-45.237000,194.137000,29.19
6.709768,2.683000,1.677000,-0.119000,114.702000,-24.321000,169.893000,29.19
6.719559,2.567000,2.021000,-0.083000,97.389000,-7.588000,129.573000,29.24
6.729649,2.581000,2.360000,-0.014000,70.672000,18.198000,73.420000,29.24
6.739557,2.573000,2.278000,0.069000,34.794000,35.573000,28.443000,29.19
6.749573,2.475000,1.872000,0.107000,-2.443000,38.702000,-12.153000,29.19
6.759605,2.048000,1.253000,1.218000,-33.145000,84.565000,-60.198000,29.24
6.769645,0.658000,0.855000,-0.638000,213.634000,-141.863000,-105.863000,29.14
6.779658,1.525000,-1.108000,-2.415000,68.962000,-61.252000,-92.198000,29.19
6.789744,-0.141000,-2.048000,-1.497000,-38.412000,-1.160000,-32.321000,29.19
6.799713,-0.763000,-1.694000,0.379000,-18.626000,111.924000,-36.519000,29.24
6.809793,-0.115000,-0.832000,-0.190000,-32.244000,47.328000,-53.542000,29.14
6.819709,0.645000,0.047000,-0.591000,-58.809000,210.351000,-61.053000,29.19
6.829775,0.561000,0.429000,-1.507000,-36.321000,186.809000,-72.595000,29.19
6.839835,0.300000,0.586000,-2.334000,-23.710000,142.916000,-92.489000,29.09
6.849848,0.492000,0.240000,-2.009000,0.305000,120.031000,-111.481000,29.24
6.859856,0.934000,-0.571000,-1.573000,20.137000,89.221000,-102.366000,29.14
6.869923,0.983000,-1.037000,-1.044000,19.893000,72.580000,-78.977000,29.09
6.879829,0.759000,-0.891000,-0.781000,-1.023000,54.366000,-58.366000,29.28
6.889949,0.494000,-0.465000,-0.995000,-15.176000,53.450000,-56.473000,29.14
6.899763,0.669000,-0.520000,-1.104000,-23.603000,54.885000,-51.878000,29.19
6.909976,0.777000,-0.741000,-0.892000,-31.053000,58.031000,-44.977000,29.19
6.919967,0.727000,-0.895000,-0.678000,-41.298000,25.893000,-33.542000,29.09
6.930005,0.522000,-0.707000,-0.675000,-60.824000,12.962000,-30.519000,29.24
6.940036,0.406000,-0.621000,-0.673000,-84.107000,15.496000,-33.145000,29.14
6.949897,0.338000,-0.589000,-0.615000,-102.580000,8.565000,-37.084000,29.19
6.959971,0.300000,-0.524000,-0.611000,-123.344000,-8.962000,-39.969000,29.19
6.970028,0.394000,-0.549000,-0.686000,-141.053000,-0.275000,-42.840000,29.24
6.979915,0.507000,-0.568000,-1.029000,-145.557000,18.015000,-42.382000,29.14
6.989958,0.508000,-0.278000,-1.074000,-131.954000,10.794000,-39.221000,29.19
6.999990,0.442000,-0.292000,-1.071000,-111.450000,-8.672000,-36.290000,29.19
7.010014,0.447000,-0.309000,-1.027000,-95.664000,-9.817000,-32.702000,29.14
7.020087,0.424000,-0.323000,-0.923000,-80.992000,-6.458000,-30.412000,29.24
7.029963,0.433000,-0.350000,-0.893000,-69.542000,-1.130000,-30.611000,29.09
7.039865,0.494000,-0.271000,-1.030000,-63.969000,2.519000,-29.893000,29.28
7.049998,0.390000,-0.369000,-0.800000,-64.321000,-0.305000,-31.557000,29.24
7.059998,0.447000,-0.380000,-0.847000,-71.328000,1.481000,-31.618000,29.19
7.070081,0.417000,-0.314000,-0.881000,-71.267000,-7.511000,-32.687000,29.19
7.080007,0.421000,-0.263000,-0.892000,-85.252000,16.931000,-27.588000,29.19
7.090010,0.381000,-0.218000,-0.884000,-61.435000,-3.496000,-34.397000,29.24
7.100044,0.379000,-0.197000,-0.915000,-57.420000,-4.290000,-34.611000,29.24
7.110121,0.404000,-0.235000,-0.900000,-56.809000,-4.397000,-34.870000,29.19
7.120090,0.402000,-0.174000,-0.918000,-53.115000,-2.305000,-32.931000,29.19
7.130015,0.396000,-0.179000,-0.929000,-51.527000,-1.496000,-30.595000,29.24
7.140053,0.414000,-0.186000,-0.897000,-48.382000,5.420000,-29.237000,29.24
7.150078,0.370000,-0.163000,-0.917000,-43.008000,15.664000,-30.809000,29.19
7.160192,0.365000,-0.157000,-0.915000,-44.015000,20.656000,-28.611000,29.28
7.170172,0.399000,-0.183000,-0.900000,-47.328000,28.550000,-28.290000,29.24
7.180405,0.411000,-0.140000,-0.926000,-38.656000,34.137000,-28.641000,29.24
7.190207,0.255000,0.178000,-1.091000,-26.901000,28.672000,-39.588000,29.09
7.200184,0.325000,-0.177000,-0.887000,-34.198000,35.282000,-30.382000,29.19
7.210107,0.396000,-0.237000,-0.846000,-40.443000,55.710000,-30.412000,29.14
7.220123,0.433000,-0.150000,-0.970000,-41.267000,72.733000,-29.588000,29.28
7.229953,0.356000,-0.106000,-0.902000,-52.168000,95.053000,-25.359000,29.19
7.240073,0.453000,-0.184000,-0.964000,-45.145000,95.344000,-21.313000,29.19
7.250073,0.422000,-0.170000,-0.872000,-49.344000,112.870000,-19.878000,29.24
7.260071,0.379000,-0.055000,-0.901000,-55.695000,143.695000,-25.832000,29.24
7.270089,0.319000,-0.171000,-0.870000,-64.473000,167.252000,-32.382000,29.19
7.279983,0.328000,-0.161000,-0.853000,-69.328000,192.137000,-42.458000,29.09
7.290034,0.424000,-0.145000,-1.040000,-39.954000,201.527000,-43.863000,29.05
7.300096,0.356000,-0.049000,-0.937000,-2.901000,207.389000,-52.397000,29.14
7.310032,0.489000,-0.064000,-0.902000,27.206000,233.267000,-64.779000,29.19
7.320084,0.540000,-0.126000,-1.025000,33.099000,249.359000,-74.244000,29.28
7.329941,0.501000,-0.240000,-0.997000,8.977000,276.504000,-90.824000,29.24
7.339955,1.109000,-0.499000,-1.101000,1.130000,242.870000,-42.534000,29.14
7.350100,0.964000,-0.453000,-1.338000,-51.435000,260.260000,-48.397000,29.19
7.360088,1.209000,-0.479000,-1.762000,-65.511000,279.221000,-110.168000,29.19
7.370201,1.537000,-0.628000,-2.292000,-91.313000,322.855000,-174.809000,29.14
7.380158,1.585000,-0.450000,-2.161000,-104.870000,307.282000,-216.076000,29.19
7.389957,1.086000,-1.283000,-2.490000,-36.550000,255.053000,-180.916000,29.19
7.400077,-0.262000,-3.366000,-3.757000,-10.473000,91.802000,-77.588000,29.19
7.410161,-0.369000,-2.823000,-2.071000,-36.290000,-118.718000,-36.504000,29.24
7.420064,-0.507000,-2.324000,-1.915000,-91.542000,-156.901000,-1.878000,29.14
7.430236,-0.409000,-1.768000,-1.567000,-98.427000,-199.160000,11.618000,29.19
7.440100,-0.451000,-1.521000,-1.528000,-66.718000,-177.084000,36.931000,29.19
7.450128,-0.523000,-1.320000,-1.338000,-29.939000,-209.985000,33.817000,29.14
7.460059,-0.442000,-1.136000,-0.860000,-30.290000,-196.061000,31.924000,29.24
7.470169,-0.332000,-0.963000,-0.680000,-18.656000,-206.382000,31.115000,29.09
7.479990,-0.189000,-0.731000,-0.650000,-5.908000,-187.893000,24.290000,29.19
7.489989,-0.038000,-0.587000,-0.670000,30.015000,-175.298000,19.267000,29.14
7.500072,0.132000,-0.600000,-0.694000,61.282000,-155.237000,14.198000,29.24
7.509978,0.283000,-0.681000,-0.764000,81.863000,-142.183000,13.847000,29.19
7.520091,0.419000,-0.719000,-0.893000,94.962000,-135.115000,20.229000,29.19
7.529966,0.540000,-0.719000,-0.999000,106.580000,-130.473000,32.076000,29.19
7.540114,0.652000,-0.670000,-1.089000,118.397000,-130.824000,49.634000,29.24
7.549993,0.697000,-0.569000,-1.103000,128.626000,-137.771000,68.565000,29.14
7.560003,0.706000,-0.455000,-1.096000,136.260000,-138.183000,84.992000,29.19
7.570006,0.670000,-0.284000,-1.135000,146.885000,-143.542000,94.504000,29.09
7.579886,0.656000,-0.142000,-1.286000,160.336000,-147.450000,95.771000,29.14
7.589877,0.683000,-0.036000,-1.377000,173.389000,-157.939000,88.565000,29.19
7.600026,0.695000,0.082000,-1.394000,182.290000,-153.481000,75.450000,29.19
7.609975,0.742000,0.087000,-1.433000,186.321000,-160.855000,61.145000,29.09
7.620018,0.836000,0.066000,-1.436000,192.840000,-163.573000,46.397000,29.14
7.629954,0.895000,0.049000,-1.383000,194.931000,-156.427000,35.420000,29.14
7.639942,1.038000,-0.020000,-1.313000,203.817000,-151.817000,29.756000,29.09
7.649971,1.294000,-0.096000,-1.320000,212.458000,-148.489000,35.099000,29.19
7.660002,1.419000,-0.102000,-1.192000,199.664000,-113.252000,47.038000,29.14
7.670010,1.508000,0.015000,-1.127000,185.771000,-101.115000,64.015000,29.05
7.680022,1.507000,0.154000,-1.134000,166.000000,-96.595000,78.076000,29.19
7.689996,1.505000,0.479000,-1.062000,151.649000,-77.954000,83.115000,29.19
7.700012,1.573000,0.712000,-1.144000,138.290000,-61.771000,79.374000,29.24
7.710032,1.584000,0.902000,-1.125000,122.076000,-68.794000,72.656000,29.24
7.720039,1.664000,1.158000,-0.949000,101.878000,-72.443000,63.053000,29.19
7.730092,2.054000,1.475000,-1.531000,378.565000,-286.595000,26.092000,29.19
7.739941,1.879000,1.281000,-1.338000,248.809000,-233.786000,41.649000,29.14
7.750011,1.815000,1.297000,-1.320000,158.275000,-114.687000,40.092000,29.19
7.759840,1.908000,1.156000,-0.327000,84.824000,-44.489000,49.160000,29.19
7.769881,1.986000,1.241000,-0.123000,53.084000,-28.611000,56.565000,29.28
7.779777,2.028000,0.773000,0.461000,-4.733000,24.809000,54.534000,29.24
7.789787,1.972000,1.169000,0.291000,-84.427000,29.649000,55.099000,29.24
7.799772,1.873000,1.840000,0.283000,-130.870000,153.725000,31.008000,29.09
7.809701,2.014000,2.212000,-0.135000,-145.832000,118.550000,29.954000,29.09
7.819617,-0.332000,-0.031000,-1.347000,-95.237000,78.534000,11.924000,29.14
7.829944,0.309000,-0.261000,-3.019000,-104.458000,-42.580000,-19.405000,29.24
7.839968,-1.012000,-0.452000,-1.857000,-44.153000,-87.435000,-16.198000,29.19
7.850018,-0.117000,-0.499000,-0.220000,-52.626000,-40.565000,-59.267000,29.19
7.860012,0.622000,-0.092000,-0.681000,-39.237000,94.519000,-70.550000,29.14
7.869721,1.120000,-0.082000,-1.789000,-31.359000,107.832000,-50.137000,29.14
7.879685,0.391000,0.147000,-1.642000,-20.351000,96.260000,-44.061000,29.19
7.889707,-0.072000,0.176000,-1.187000,-13.511000,97.405000,-55.588000,29.19
7.899708,0.204000,-0.047000,-1.415000,15.908000,77.084000,-55.634000,29.14
7.909924,0.419000,-0.217000,-1.240000,30.336000,64.244000,-51.603000,29.19
7.919622,0.628000,-0.562000,-1.127000,26.153000,52.611000,-50.305000,29.19
7.929606,0.623000,-0.681000,-0.729000,17.817000,64.992000,-39.878000,29.19
7.939873,0.677000,-0.724000,-0.828000,2.366000,61.435000,-35.160000,29.14
7.949585,0.739000,-0.618000,-0.971000,-6.595000,67.115000,-26.305000,29.14
7.959547,0.681000,-0.608000,-0.873000,-15.328000,52.382000,-20.427000,29.19
7.969578,0.564000,-0.669000,-0.755000,-21.282000,34.153000,-16.153000,29.09
7.979622,0.456000,-0.632000,-0.729000,-36.519000,16.672000,-14.733000,29.14
7.989580,0.415000,-0.527000,-0.807000,-46.122000,8.061000,-15.710000,29.24
7.999572,0.356000,-0.378000,-0.885000,-52.702000,11.573000,-17.160000,29.09
8.009563,0.287000,-0.280000,-0.864000,-57.954000,8.977000,-18.092000,29.09
8.019559,0.316000,-0.373000,-0.859000,-58.840000,16.519000,-20.168000,29.14
8.030120,0.421000,-0.378000,-0.958000,-57.389000,20.458000,-19.313000,29.14
8.039741,0.373000,-0.302000,-0.906000,-48.687000,16.550000,-18.122000,29.28
8.050116,0.357000,-0.390000,-0.788000,-43.969000,14.885000,-18.198000,29.19
8.059588,0.416000,-0.474000,-0.760000,-44.076000,14.061000,-18.855000,29.24
8.069836,0.435000,-0.474000,-0.790000,-50.336000,13.374000,-19.008000,29.09
8.079746,0.433000,-0.464000,-0.780000,-57.191000,11.740000,-19.786000,29.19
8.090148,0.435000,-0.472000,-0.822000,-64.427000,16.198000,-22.000000,29.19
8.099720,0.436000,-0.434000,-0.809000,-69.023000,16.885000,-25.924000,29.14
8.110158,0.436000,-0.415000,-0.748000,-70.229000,19.603000,-28.733000,29.14
8.120025,0.448000,-0.409000,-0.860000,-74.046000,15.939000,-30.351000,29.19
8.129819,0.378000,-0.210000,-0.864000,-67.145000,4.550000,-29.344000,29.19
8.140185,0.418000,-0.255000,-0.919000,-62.901000,10.687000,-29.176000,29.24
8.149892,0.416000,-0.255000,-0.913000,-58.153000,11.374000,-28.763000,29.24
8.160109,0.382000,-0.229000,-0.875000,-55.985000,15.130000,-30.137000,29.19
8.170500,0.425000,-0.198000,-0.972000,-50.244000,16.458000,-31.389000,29.28
8.180545,0.452000,-0.203000,-0.926000,-46.580000,21.557000,-32.198000,29.14
8.190296,0.425000,-0.230000,-0.909000,-41.359000,22.931000,-31.221000,29.14
8.200477,0.386000,-0.212000,-0.913000,-39.221000,24.809000,-28.489000,29.19
8.210531,0.447000,-0.233000,-0.914000,-34.565000,34.870000,-29.099000,29.19
8.220496,0.446000,-0.213000,-0.929000,-38.595000,36.534000,-29.969000,29.14
8.230574,0.381000,-0.685000,-0.808000,-15.023000,52.794000,-35.252000,29.09
8.240526,0.407000,-0.109000,-0.892000,-25.786000,59.542000,-36.443000,29.09
8.250974,0.478000,-0.395000,-0.848000,-29.954000,69.511000,-32.916000,29.24
8.260487,0.406000,-0.244000,-0.927000,-38.473000,88.412000,-33.802000,29.14
8.270401,0.470000,-0.260000,-0.892000,-53.084000,113.069000,-32.107000,29.09
8.280340,0.377000,-0.106000,-0.886000,-51.557000,143.649000,-35.420000,29.19
8.290708,0.430000,-0.132000,-0.860000,-55.053000,162.534000,-39.985000,29.24
8.300316,0.402000,-0.071000,-0.880000,-55.573000,186.244000,-41.252000,29.14
8.310264,0.400000,-0.071000,-0.872000,-37.847000,202.412000,-41.664000,29.19
8.320354,0.426000,-0.049000,-0.923000,-23.023000,199.374000,-36.931000,29.09
8.330181,0.499000,-0.090000,-0.978000,4.580000,208.977000,-36.733000,29.14
8.339841,0.571000,-0.207000,-1.036000,26.076000,236.626000,-45.771000,29.14
8.350064,0.471000,-0.310000,-1.204000,44.580000,246.534000,-57.634000,29.19
8.360148,0.913000,-0.319000,-1.216000,64.000000,239.389000,-21.221000,29.19
8.370366,0.979000,-0.229000,-1.200000,35.893000,303.557000,-20.244000,29.14
8.380059,0.874000,-0.387000,-1.478000,32.840000,318.718000,-65.099000,29.14
8.390182,1.151000,-0.344000,-1.735000,25.969000,335.450000,-114.031000,29.09
8.399815,1.453000,-0.676000,-1.798000,-1.588000,363.679000,-164.718000,29.19
8.409782,1.161000,-0.573000,-2.255000,-13.679000,313.893000,-190.641000,29.24
8.420179,0.919000,-0.399000,-2.898000,-8.748000,295.802000,-177.695000,29.14
8.430259,-0.112000,-2.814000,-1.930000,54.550000,158.534000,-149.985000,29.19
8.440149,0.482000,-4.000000,-3.257000,-55.405000,-64.305000,-13.130000,29.28
8.450190,-0.302000,-3.048000,-2.665000,-198.336000,-236.504000,58.702000,29.14
8.460116,-1.238000,-1.141000,-1.448000,-206.137000,-295.313000,67.649000,29.14
8.470200,-1.156000,-0.775000,-1.122000,-166.641000,-217.786000,32.580000,29.09
8.480162,-0.964000,-0.812000,-1.655000,-76.672000,-246.977000,6.397000,29.19
8.490240,-0.678000,-1.056000,-1.338000,-47.725000,-228.137000,-18.275000,29.05
8.500242,-0.371000,-1.274000,-0.989000,-44.092000,-205.130000,-28.336000,29.19
8.510423,-0.187000,-1.084000,-0.728000,-23.237000,-232.015000,-34.275000,29.19
8.520186,0.029000,-0.943000,-0.792000,-6.626000,-235.679000,-37.053000,29.09
8.530440,0.245000,-0.957000,-0.649000,14.000000,-214.351000,-31.786000,29.24
8.540290,0.461000,-1.000000,-0.701000,39.695000,-216.901000,-19.511000,29.14
8.550293,0.637000,-1.031000,-0.737000,56.885000,-210.168000,-2.702000,29.19
8.560301,0.769000,-1.005000,-0.858000,79.863000,-201.878000,18.885000,29.09
8.570202,0.898000,-0.937000,-0.895000,100.382000,-188.443000,41.939000,29.24
8.580228,0.989000,-0.889000,-0.868000,112.321000,-176.168000,66.092000,29.14
8.590037,1.038000,-0.780000,-0.876000,117.924000,-159.878000,90.656000,29.09
8.600209,1.067000,-0.564000,-0.930000,128.290000,-151.130000,111.176000,29.09
8.610173,0.970000,-0.234000,-1.019000,142.275000,-140.458000,122.687000,29.14
8.620204,0.968000,-0.060000,-1.167000,152.427000,-126.840000,122.748000,29.05
8.629957,1.064000,-0.006000,-1.325000,156.702000,-133.450000,119.450000,29.19
8.639997,1.178000,0.050000,-1.370000,144.137000,-123.328000,110.840000,29.19
8.649829,1.352000,0.086000,-1.395000,136.489000,-156.519000,107.206000,29.14
8.659750,1.443000,0.228000,-1.302000,129.252000,-156.015000,100.153000,29.09
8.669659,1.486000,0.367000,-1.096000,131.145000,-160.092000,95.267000,29.09
8.679630,1.525000,0.468000,-0.901000,135.130000,-152.977000,87.817000,29.19
8.689786,1.549000,0.501000,-0.778000,128.763000,-116.550000,81.527000,29.14
8.699561,1.543000,0.573000,-0.728000,121.618000,-84.733000,78.794000,29.14
8.709575,1.571000,0.667000,-0.706000,115.664000,-55.863000,78.015000,29.19
8.719555,1.673000,0.796000,-0.773000,119.053000,-26.260000,75.008000,29.09
8.729544,1.811000,0.836000,-0.879000,132.061000,-29.649000,70.366000,29.24
8.739836,1.959000,0.838000,-1.021000,118.641000,-7.008000,62.504000,29.09
8.749590,2.012000,0.919000,-0.944000,104.489000,-19.221000,58.534000,29.19
8.759658,1.890000,0.981000,-0.717000,98.672000,-51.252000,49.802000,29.14
8.769576,1.675000,1.123000,-0.358000,82.321000,-75.924000,34.595000,29.05
8.779543,1.596000,1.135000,-0.242000,62.916000,-67.130000,16.275000,29.19
8.789541,1.648000,0.982000,-0.274000,19.878000,-59.802000,4.672000,29.19
8.799931,1.615000,0.894000,-0.376000,-5.405000,-39.282000,-5.023000,29.14
8.809693,1.591000,0.837000,-0.462000,-29.359000,-33.573000,-2.901000,29.14
8.819928,1.340000,0.624000,-0.528000,-27.863000,-41.664000,3.542000,29.09
8.829668,1.542000,0.916000,-0.461000,-28.977000,-117.924000,-24.061000,29.19
8.840250,1.582000,1.125000,-0.430000,-76.076000,70.840000,-40.458000,29.14
8.850015,0.779000,0.333000,-0.382000,-94.931000,59.740000,-18.962000,29.24
8.859916,0.555000,-0.538000,-1.266000,-47.908000,44.214000,7.496000,29.28
8.869658,0.343000,-0.880000,-1.456000,-45.939000,12.000000,11.023000,29.09
8.879720,-0.360000,-0.240000,-0.906000,-45.466000,-3.710000,-26.275000,29.14
8.890367,-0.004000,0.255000,-1.247000,-32.672000,37.710000,-55.481000,29.14
8.900111,0.585000,0.627000,-1.770000,-33.679000,69.786000,-59.511000,29.19
8.910093,0.433000,0.452000,-1.843000,-9.145000,65.344000,-60.794000,29.09
8.919756,0.164000,0.096000,-1.250000,9.023000,69.328000,-65.008000,29.24
8.929784,0.379000,-0.278000,-1.146000,24.504000,47.985000,-61.695000,29.19
8.940137,0.621000,-0.466000,-0.918000,13.710000,50.702000,-47.344000,29.09
8.949982,0.517000,-0.312000,-0.941000,14.382000,56.000000,-38.031000,29.19
8.960013,0.758000,-0.554000,-1.056000,9.542000,47.328000,-25.344000,29.14
8.970164,0.727000,-0.669000,-0.838000,-4.458000,42.275000,-16.504000,29.14
8.980167,0.753000,-0.806000,-0.811000,-13.206000,29.985000,-9.924000,29.09
8.990274,0.602000,-0.687000,-0.724000,-24.122000,5.786000,-8.443000,29.09
9.000227,0.458000,-0.624000,-0.659000,-35.206000,-3.130000,-11.405000,29.14
9.010240,0.308000,-0.580000,-0.621000,-56.824000,-7.435000,-16.885000,29.14
9.020228,0.252000,-0.536000,-0.592000,-75.313000,-9.435000,-23.374000,29.19
9.030113,0.321000,-0.466000,-0.813000,-87.282000,-0.809000,-26.580000,29.19
9.040232,0.284000,-0.293000,-0.880000,-86.595000,9.359000,-28.015000,29.14
9.050273,0.318000,-0.282000,-0.834000,-87.389000,21.481000,-27.954000,29.05
9.060300,0.310000,-0.261000,-0.874000,-86.427000,21.221000,-26.962000,29.09
9.070353,0.321000,-0.287000,-0.913000,-81.359000,27.450000,-28.534000,29.19
9.080075,0.429000,-0.337000,-0.933000,-82.153000,36.031000,-30.489000,29.14
9.090110,0.522000,-0.286000,-1.113000,-76.718000,41.802000,-29.924000,29.09
9.100178,0.415000,-0.237000,-0.835000,-59.863000,27.634000,-28.870000,29.09
9.109887,0.462000,-0.373000,-0.889000,-55.786000,22.870000,-30.198000,29.09
9.119832,0.461000,-0.308000,-0.886000,-58.779000,7.924000,-32.748000,29.05
9.130116,0.438000,-0.193000,-0.899000,-56.031000,3.176000,-31.939000,29.14
9.140029,0.432000,-0.119000,-0.916000,-49.313000,8.000000,-30.733000,29.19
9.149680,0.435000,-0.187000,-0.937000,-45.221000,11.237000,-29.130000,29.19
9.159732,0.435000,-0.179000,-0.943000,-40.061000,14.641000,-28.137000,29.05
9.169784,0.372000,-0.241000,-0.875000,-38.382000,18.122000,-26.336000,29.14
9.179571,0.417000,-0.207000,-0.920000,-34.443000,23.053000,-28.702000,29.09
9.190113,0.452000,-0.183000,-0.900000,-32.947000,32.962000,-29.115000,29.09
9.199643,0.350000,-0.092000,-0.952000,-33.863000,30.824000,-30.672000,29.05
9.209784,0.433000,-0.222000,-0.893000,-34.947000,30.534000,-29.176000,29.14
9.220200,0.416000,-0.152000,-0.883000,-26.641000,40.107000,-31.450000,29.19
9.231024,0.439000,-0.263000,-0.829000,-34.427000,51.099000,-27.466000,29.19
9.246806,0.422000,-0.134000,-0.912000,-32.534000,61.282000,-27.542000,29.14
9.249553,0.538000,-0.139000,-0.844000,-38.580000,82.351000,-17.847000,29.24
9.260032,0.422000,-0.146000,-0.934000,-49.282000,99.817000,-18.183000,29.19
9.269633,0.434000,-0.186000,-0.900000,-45.466000,108.076000,-16.168000,29.19
9.279692,0.431000,-0.181000,-0.842000,-56.840000,129.756000,-17.237000,29.19
9.289688,0.371000,-0.115000,-0.848000,-67.298000,157.359000,-24.397000,29.14
9.299740,0.359000,-0.089000,-0.810000,-75.771000,180.443000,-32.061000,29.09
9.309708,0.445000,-0.044000,-0.832000,-79.069000,185.435000,-37.969000,29.09
9.319692,0.495000,-0.070000,-0.916000,-65.099000,192.733000,-38.794000,29.19
9.329762,0.435000,-0.088000,-0.843000,-58.061000,207.847000,-47.420000,29.14
9.339792,0.520000,-0.135000,-0.771000,-64.550000,223.908000,-58.489000,29.05
9.349836,0.461000,-0.049000,-0.846000,-65.634000,249.435000,-73.679000,29.19
9.359864,0.605000,-0.216000,-0.852000,-82.305000,261.206000,-89.954000,29.09
9.369823,0.846000,-0.198000,-0.915000,-48.855000,215.634000,-24.061000,29.14
9.379891,0.930000,-0.532000,-1.140000,-91.481000,178.992000,-33.588000,29.14
9.389855,1.128000,-0.620000,-1.439000,-12.992000,275.557000,-16.550000,29.09
9.399966,0.969000,-0.973000,-1.615000,-9.695000,333.038000,-116.214000,29.05
9.410058,1.409000,-0.441000,-1.879000,-26.656000,313.557000,-162.824000,29.24
9.420001,1.849000,-0.144000,-1.425000,-145.939000,411.695000,-193.954000,29.14
9.430004,1.606000,-0.412000,-1.993000,-179.084000,403.527000,-242.519000,29.09
9.439893,1.795000,-0.804000,-2.072000,-212.962000,391.649000,-260.916000,29.09
9.449893,0.876000,-1.061000,-2.606000,-159.389000,173.496000,-193.481000,29.24
9.459828,-0.518000,-4.000000,-2.868000,-76.366000,71.786000,0.412000,29.19
9.469862,1.368000,-4.000000,-4.000000,-105.527000,-18.534000,150.061000,29.09
9.480032,-0.887000,-2.539000,-1.786000,-157.359000,-145.969000,201.176000,29.05
9.489913,-1.227000,-1.169000,-1.199000,-113.298000,-166.870000,196.794000,29.14
9.500196,-0.992000,-0.579000,-1.495000,-66.809000,-168.336000,179.847000,29.19
9.510057,-0.841000,-0.699000,-1.733000,-20.840000,-228.107000,133.481000,29.00
9.520046,-0.336000,-1.036000,-1.867000,-40.779000,-145.603000,105.359000,29.14
9.530132,0.097000,-0.924000,-1.842000,-38.779000,-212.992000,80.611000,29.14
9.540099,0.426000,-0.622000,-2.042000,-29.618000,-251.588000,50.977000,29.09
9.549983,0.587000,-0.217000,-1.709000,-11.802000,-277.588000,18.595000,29.09
9.559779,0.742000,-0.030000,-1.500000,40.443000,-400.260000,-5.160000,29.05
9.569739,0.838000,0.041000,-1.140000,96.947000,-438.733000,-37.893000,29.05
9.579817,0.929000,-0.114000,-0.760000,131.802000,-431.496000,-65.786000,29.19
9.589838,1.072000,-0.354000,-0.610000,146.901000,-375.115000,-73.542000,29.19
9.599662,1.171000,-0.632000,-0.563000,151.313000,-312.183000,-67.252000,29.14
9.609573,1.278000,-0.714000,-0.616000,157.939000,-247.588000,-48.137000,29.14
9.619559,1.534000,-0.672000,-0.734000,174.412000,-219.786000,-10.580000,29.09
9.629778,1.185000,-0.685000,-0.737000,180.015000,-224.031000,30.458000,29.09
9.639601,1.263000,-0.484000,-0.927000,193.023000,-203.618000,65.053000,29.14
9.649711,1.143000,-0.414000,-0.927000,192.382000,-176.611000,87.160000,29.14
9.660125,1.155000,-0.336000,-1.040000,192.901000,-149.679000,101.893000,29.19
9.670551,1.135000,-0.200000,-1.226000,187.115000,-127.130000,113.893000,29.09
9.680375,1.235000,-0.121000,-1.286000,186.397000,-117.267000,129.023000,29.14
9.690394,1.288000,0.050000,-1.352000,185.481000,-109.481000,139.160000,29.05
9.700429,1.282000,0.161000,-1.388000,178.412000,-107.695000,145.527000,29.19
9.710380,1.377000,0.317000,-1.424000,173.328000,-117.969000,145.786000,29.09
9.720373,1.446000,0.399000,-1.426000,161.374000,-115.603000,140.305000,29.14
9.730511,1.559000,0.632000,-1.528000,155.618000,-141.786000,129.847000,29.19
9.740461,1.613000,0.868000,-1.500000,149.969000,-131.832000,114.107000,29.19
9.753074,1.642000,1.111000,-1.051000,91.863000,-75.084000,101.924000,29.09
9.759832,1.638000,0.539000,-1.328000,135.160000,-122.885000,91.618000,29.24
9.769757,1.750000,1.129000,-0.583000,63.115000,-87.344000,72.626000,29.05
9.779841,2.019000,1.076000,-0.586000,98.962000,-125.069000,62.626000,29.19
9.789940,2.114000,1.096000,-0.450000,126.794000,-109.359000,55.939000,29.09
9.799741,1.748000,1.764000,-0.703000,196.458000,-197.924000,18.611000,29.14
9.810489,1.841000,1.339000,0.113000,100.473000,-33.481000,38.061000,29.14
9.820336,2.040000,1.337000,-0.035000,72.061000,-11.939000,34.656000,29.09
9.830086,2.036000,1.421000,-0.133000,36.107000,22.473000,26.565000,29.19
9.840555,2.067000,1.261000,-0.190000,9.374000,34.840000,19.771000,29.14
9.850534,0.899000,0.293000,0.689000,-15.725000,45.176000,15.130000,29.24
9.860252,2.095000,1.590000,0.597000,-97.542000,51.557000,-27.893000,29.19
9.870292,0.037000,0.476000,-0.580000,-85.588000,53.756000,-22.809000,29.19
9.880460,1.137000,-0.441000,-2.612000,-100.427000,42.672000,-18.092000,29.14
9.890138,-0.652000,-0.855000,-1.453000,-72.641000,-17.191000,-24.885000,29.09
9.900137,-0.709000,-0.768000,0.044000,-48.656000,-20.015000,-58.198000,29.09
9.909938,0.145000,0.032000,-0.353000,-95.924000,119.527000,-80.076000,29.09
9.919650,0.973000,0.207000,-2.147000,-46.702000,193.802000,-84.962000,29.14
9.929626,0.903000,0.589000,-2.441000,-28.763000,157.847000,-86.733000,29.14
9.939645,0.462000,0.502000,-1.801000,-2.870000,147.817000,-104.718000,29.09
9.949563,0.741000,-0.320000,-1.601000,23.573000,143.160000,-101.557000,29.19
9.959555,1.041000,-0.912000,-1.125000,11.771000,121.969000,-80.702000,29.14
9.969550,1.018000,-0.905000,-0.875000,-5.573000,84.809000,-58.687000,29.14
9.979759,0.808000,-0.632000,-1.030000,-21.069000,40.031000,-47.817000,29.19
9.989563,0.774000,-0.513000,-0.979000,-37.573000,27.771000,-37.908000,29.19
9.999611,0.658000,-0.594000,-0.686000,-56.321000,32.092000,-32.260000,29.14
10.009645,0.684000,-0.623000,-0.781000,-68.321000,13.802000,-26.550000,29.05
