# Gait Analysis Data - MPU6050 IMU
# Duration: 10 seconds
# Format: timestamp(s),ax(g),ay(g),az(g),gx(deg/s),gy(deg/s),gz(deg/s),temp(C)
# Note: Document sensor placement (ankle/wrist) separately
timestamp,ax,ay,az,gx,gy,gz,temp
0.000779,0.503000,-0.177000,-0.852000,-16.214000,1.527000,-13.573000,29.38
0.001647,0.458000,-0.163000,-0.847000,-11.695000,-13.115000,-12.870000,29.42
0.002261,0.457000,-0.170000,-0.862000,-10.931000,-4.718000,-12.916000,29.42
0.002852,0.445000,-0.136000,-0.856000,-14.962000,11.573000,-13.099000,29.47
0.003426,0.462000,-0.155000,-0.865000,-11.450000,4.626000,-13.420000,29.47
0.004017,0.470000,-0.145000,-0.871000,-10.336000,4.015000,-13.298000,29.42
0.004586,0.472000,-0.151000,-0.864000,-8.656000,1.542000,-13.252000,29.42
0.005700,0.475000,-0.162000,-0.864000,-9.496000,5.313000,-13.954000,29.47
0.006435,0.482000,-0.141000,-0.873000,-10.458000,7.511000,-14.046000,29.38
0.007056,0.495000,-0.142000,-0.864000,-9.985000,6.244000,-13.725000,29.42
0.007712,0.484000,-0.134000,-0.872000,-9.221000,5.145000,-13.206000,29.42
0.008304,0.484000,-0.135000,-0.862000,-8.977000,6.748000,-12.183000,29.47
0.009032,0.492000,-0.129000,-0.882000,-8.763000,8.489000,-11.374000,29.28
0.009924,0.498000,-0.112000,-0.873000,-8.794000,10.427000,-10.443000,29.33
0.010742,0.492000,-0.107000,-0.874000,-7.252000,11.084000,-8.748000,29.42
0.011485,0.493000,-0.109000,-0.873000,-5.985000,12.168000,-6.901000,29.38
0.012166,0.490000,-0.104000,-0.866000,-3.863000,14.061000,-5.496000,29.38
0.012911,0.492000,-0.110000,-0.863000,-2.153000,16.244000,-4.092000,29.42
0.014487,0.483000,-0.113000,-0.862000,0.260000,17.954000,-2.443000,29.47
0.015529,0.478000,-0.121000,-0.865000,-0.153000,20.947000,-1.573000,29.47
0.016269,0.491000,-0.158000,-0.861000,-0.687000,22.870000,-1.985000,29.38
0.017215,0.486000,-0.170000,-0.864000,-3.084000,27.313000,-3.160000,29.42
0.017955,0.512000,-0.170000,-0.854000,-4.656000,27.863000,-4.443000,29.42
0.018652,0.530000,-0.150000,-0.849000,-6.489000,28.565000,-5.176000,29.38
0.019326,0.534000,-0.148000,-0.837000,-6.366000,26.947000,-6.443000,29.38
0.020224,0.506000,-0.191000,-0.846000,-4.626000,26.351000,-8.427000,29.42
0.020881,0.469000,-0.192000,-0.843000,-7.481000,33.313000,-9.206000,29.42
0.021594,0.526000,-0.154000,-0.859000,-6.336000,38.046000,-10.718000,29.38
0.022315,0.545000,-0.146000,-0.870000,-4.855000,45.679000,-9.756000,29.38
0.023237,0.529000,-0.145000,-0.885000,-3.924000,55.313000,-6.992000,29.33
0.023940,0.539000,-0.111000,-0.905000,-4.031000,64.687000,-6.672000,29.42
0.024672,0.552000,-0.109000,-0.903000,-4.901000,75.191000,-3.893000,29.38
0.025443,0.525000,-0.109000,-0.913000,-3.481000,84.366000,-2.595000,29.38
0.026163,0.523000,-0.135000,-0.880000,-3.221000,96.626000,-2.870000,29.42
0.027044,0.516000,-0.143000,-0.906000,-2.962000,105.084000,-7.023000,29.28
0.027863,0.471000,-0.250000,-0.897000,-7.328000,116.168000,-16.550000,29.38
0.028602,0.503000,-0.273000,-0.901000,-13.985000,123.481000,-29.649000,29.47
0.029713,0.553000,-0.234000,-0.945000,-13.252000,129.481000,-40.718000,29.33
0.030628,0.653000,-0.247000,-1.001000,-19.588000,130.916000,-51.634000,29.42
0.031324,0.706000,-0.208000,-0.977000,-28.901000,131.267000,-59.176000,29.38
0.031982,0.718000,-0.123000,-0.922000,-27.740000,132.977000,-67.435000,29.38
0.032654,0.784000,-0.134000,-0.942000,-24.489000,129.954000,-75.817000,29.42
0.033275,0.753000,-0.203000,-0.949000,-28.183000,148.718000,-81.710000,29.42
0.033759,0.892000,-0.310000,-0.901000,-46.427000,145.374000,-84.168000,29.38
0.034240,0.872000,-0.082000,-0.820000,-43.389000,131.466000,-84.321000,29.47
0.034723,0.888000,-0.175000,-0.773000,-29.267000,120.550000,-83.908000,29.42
0.035321,0.780000,-0.227000,-0.767000,-9.863000,114.244000,-79.878000,29.42
0.035819,0.491000,-0.487000,-1.218000,6.916000,96.397000,-73.176000,29.47
0.036363,0.304000,-0.802000,-1.427000,17.267000,58.656000,-54.046000,29.47
0.037017,-0.136000,-1.151000,-1.154000,2.031000,20.351000,-30.183000,29.42
0.037666,0.065000,-1.008000,-0.755000,-4.611000,20.031000,-3.557000,29.52
0.038295,-0.140000,-0.805000,-1.035000,-4.504000,-0.473000,9.450000,29.47
0.038986,-0.119000,-0.645000,-0.911000,3.420000,-5.481000,23.740000,29.38
0.039624,-0.060000,-0.529000,-0.939000,13.069000,-14.595000,28.824000,29.38
0.040395,0.010000,-0.479000,-0.976000,17.786000,-29.176000,32.672000,29.42
0.041013,0.095000,-0.424000,-0.999000,21.450000,-47.176000,33.802000,29.38
0.041608,0.183000,-0.397000,-0.997000,21.939000,-64.198000,33.634000,29.47
0.042190,0.243000,-0.300000,-1.019000,20.672000,-74.153000,33.282000,29.47
0.042762,0.311000,-0.266000,-1.036000,25.481000,-80.260000,32.656000,29.42
0.043342,0.848000,-0.011000,-1.195000,37.450000,-85.435000,27.511000,29.33
0.043923,0.874000,0.121000,-1.090000,32.687000,-103.221000,22.748000,29.47
0.044506,0.897000,0.190000,-0.942000,39.069000,-122.641000,11.740000,29.38
0.045076,0.956000,0.139000,-0.835000,41.313000,-127.221000,5.023000,29.33
0.045747,0.915000,0.099000,-0.733000,44.947000,-125.527000,-0.595000,29.42
0.046618,0.859000,0.070000,-0.686000,46.550000,-120.427000,-1.832000,29.38
0.047223,0.804000,-0.002000,-0.661000,47.603000,-111.130000,0.458000,29.38
0.047782,0.762000,-0.060000,-0.665000,48.519000,-104.947000,4.489000,29.33
0.048335,0.780000,-0.117000,-0.687000,47.084000,-98.244000,9.237000,29.52
0.048894,0.733000,-0.180000,-0.693000,44.733000,-86.748000,16.244000,29.38
0.049455,0.821000,-0.219000,-0.782000,44.061000,-83.985000,25.634000,29.38
0.050005,0.762000,-0.265000,-0.753000,39.756000,-83.664000,35.939000,29.42
0.050507,0.718000,-0.285000,-0.711000,33.359000,-77.695000,48.031000,29.42
0.051020,0.706000,-0.263000,-0.790000,30.687000,-70.168000,60.519000,29.52
0.051532,0.728000,-0.234000,-0.794000,30.718000,-65.008000,75.832000,29.47
0.052177,0.763000,-0.163000,-0.827000,31.557000,-62.855000,85.359000,29.38
0.052871,0.736000,-0.084000,-0.816000,28.794000,-63.405000,89.985000,29.42
0.053394,0.743000,0.029000,-0.801000,27.038000,-62.198000,88.809000,29.38
0.053901,0.745000,0.127000,-0.769000,23.313000,-60.443000,81.405000,29.47
0.054482,0.719000,0.216000,-0.746000,19.649000,-62.153000,68.870000,29.38
0.055019,0.700000,0.311000,-0.670000,14.137000,-57.084000,51.542000,29.33
0.055580,0.706000,0.326000,-0.658000,9.237000,-47.924000,29.954000,29.42
0.056250,0.789000,0.333000,-0.698000,9.145000,-43.985000,9.557000,29.47
0.056779,0.858000,0.344000,-0.686000,13.466000,-41.679000,-8.519000,29.38
0.057347,0.879000,0.331000,-0.606000,19.481000,-34.962000,-24.672000,29.42
0.057954,0.885000,0.304000,-0.518000,26.504000,-27.725000,-39.756000,29.42
0.058482,0.921000,0.287000,-0.445000,35.160000,-15.420000,-52.626000,29.47
0.058991,0.951000,0.260000,-0.412000,45.420000,-2.489000,-63.038000,29.38
0.059494,1.249000,0.088000,-0.451000,5.252000,-9.863000,-102.641000,29.47
0.059989,1.278000,0.572000,-0.434000,-12.840000,1.771000,-120.824000,29.33
0.060461,1.555000,0.901000,-0.496000,-5.221000,4.534000,-130.290000,29.42
0.060940,1.813000,1.107000,-0.477000,14.351000,-0.427000,-140.458000,29.38
0.061409,1.907000,1.077000,-0.486000,35.527000,-25.649000,-148.809000,29.38
0.061875,1.443000,0.092000,-0.309000,55.527000,7.237000,-100.550000,29.42
0.062342,1.254000,-0.303000,-0.789000,56.855000,-49.267000,-73.985000,29.42
0.062946,0.601000,-0.108000,-0.631000,48.992000,-64.351000,-43.771000,29.47
0.063536,0.389000,-0.345000,-0.794000,35.542000,-66.733000,-7.511000,29.47
0.064009,0.197000,-0.359000,-0.916000,26.931000,-60.183000,15.710000,29.42
0.064464,0.109000,-0.314000,-0.806000,2.641000,-44.214000,4.122000,29.47
0.064936,0.250000,-0.184000,-0.863000,-5.740000,-23.084000,-5.252000,29.38
0.065402,0.521000,-0.374000,-0.879000,1.908000,-15.740000,-7.573000,29.47
0.065863,0.514000,-0.400000,-0.800000,2.046000,-0.427000,-6.962000,29.42
0.066323,0.499000,-0.182000,-0.922000,0.962000,14.641000,-6.718000,29.42
0.066776,0.438000,-0.075000,-0.983000,8.275000,3.023000,-3.878000,29.38
0.067234,0.476000,-0.088000,-0.965000,11.237000,0.198000,-0.885000,29.38
0.067786,0.510000,-0.224000,-0.847000,7.863000,-3.084000,1.115000,29.42
0.068376,0.528000,-0.292000,-0.833000,5.313000,5.282000,1.344000,29.42
0.068840,0.458000,-0.308000,-0.807000,2.779000,7.496000,-0.947000,29.38
0.069347,0.436000,-0.248000,-0.829000,0.244000,3.618000,-3.710000,29.38
0.069806,0.432000,-0.174000,-0.837000,-0.137000,1.618000,-5.084000,29.42
0.070247,0.448000,-0.185000,-0.858000,-0.321000,2.534000,-6.046000,29.52
0.070678,0.465000,-0.151000,-0.856000,0.519000,5.634000,-5.298000,29.42
0.071107,0.449000,-0.114000,-0.864000,3.603000,6.443000,-3.893000,29.38
0.071543,0.438000,-0.123000,-0.896000,8.031000,4.824000,-2.427000,29.47
0.072033,0.463000,-0.152000,-0.908000,11.466000,4.595000,-0.534000,29.33
0.072486,0.484000,-0.174000,-0.896000,13.832000,4.305000,1.786000,29.42
0.072971,0.491000,-0.192000,-0.881000,14.763000,5.466000,3.252000,29.28
0.073570,0.484000,-0.241000,-0.869000,13.298000,6.504000,3.145000,29.47
0.074025,0.476000,-0.244000,-0.853000,11.160000,6.992000,2.748000,29.42
0.074453,0.493000,-0.233000,-0.871000,9.832000,6.198000,2.550000,29.47
0.074882,0.470000,-0.259000,-0.845000,7.634000,5.511000,1.405000,29.47
0.075317,0.466000,-0.270000,-0.840000,5.084000,4.534000,-0.229000,29.38
0.075752,0.471000,-0.241000,-0.861000,2.137000,4.718000,-1.679000,29.42
0.076189,0.469000,-0.234000,-0.857000,0.641000,5.359000,-2.061000,29.42
0.076631,0.473000,-0.222000,-0.865000,-0.550000,5.160000,-1.847000,29.28
0.077073,0.471000,-0.203000,-0.866000,-0.672000,5.221000,-1.267000,29.28
0.077511,0.473000,-0.203000,-0.872000,0.061000,4.687000,-0.519000,29.33
0.078017,0.469000,-0.205000,-0.862000,0.580000,5.511000,0.336000,29.42
0.078612,0.476000,-0.208000,-0.856000,0.870000,5.725000,0.748000,29.38
0.079067,0.475000,-0.218000,-0.857000,1.924000,5.023000,0.962000,29.38
0.079529,0.474000,-0.218000,-0.861000,2.015000,4.275000,1.221000,29.42
0.079978,0.471000,-0.234000,-0.846000,0.672000,3.863000,0.519000,29.42
0.080408,0.482000,-0.235000,-0.854000,0.061000,3.603000,0.244000,29.47
0.080834,0.469000,-0.236000,-0.836000,-1.557000,5.221000,-0.214000,29.38
0.081257,0.476000,-0.218000,-0.852000,-1.344000,1.191000,-0.305000,29.42
0.081677,0.486000,-0.211000,-0.865000,-0.397000,0.229000,0.122000,29.47
0.082099,0.468000,-0.208000,-0.859000,0.824000,0.046000,1.160000,29.47
0.082523,0.470000,-0.215000,-0.858000,1.099000,0.748000,1.206000,29.47
0.082943,0.477000,-0.198000,-0.875000,3.573000,0.519000,2.519000,29.42
0.083362,0.473000,-0.206000,-0.874000,6.015000,-0.031000,3.145000,29.42
0.083882,0.487000,-0.191000,-0.887000,9.542000,1.374000,5.023000,29.38
0.084469,0.470000,-0.193000,-0.874000,12.763000,1.160000,6.382000,29.38
0.084924,0.467000,-0.200000,-0.873000,15.634000,0.947000,7.588000,29.42
0.085360,0.475000,-0.192000,-0.876000,18.870000,1.160000,9.023000,29.33
0.085800,0.457000,-0.214000,-0.856000,19.847000,1.405000,9.481000,29.38
0.086233,0.463000,-0.235000,-0.855000,20.595000,2.031000,9.969000,29.38
0.086672,0.479000,-0.221000,-0.872000,23.267000,1.435000,10.672000,29.33
0.087102,0.467000,-0.219000,-0.851000,25.557000,0.229000,11.481000,29.42
0.087537,0.461000,-0.264000,-0.832000,25.053000,-0.046000,11.649000,29.47
0.088060,0.451000,-0.270000,-0.836000,23.466000,-0.687000,10.763000,29.38
0.088585,0.463000,-0.270000,-0.847000,22.443000,-1.298000,10.168000,29.42
0.089048,0.452000,-0.294000,-0.845000,20.748000,-2.275000,9.252000,29.33
0.089468,0.455000,-0.297000,-0.839000,19.053000,-2.473000,8.244000,29.47
0.089905,0.456000,-0.301000,-0.825000,17.588000,-2.565000,7.649000,29.47
0.090327,0.444000,-0.303000,-0.835000,16.229000,-2.870000,6.672000,29.33
0.090751,0.430000,-0.303000,-0.814000,13.191000,-2.779000,5.878000,29.42
0.091169,0.418000,-0.299000,-0.820000,9.908000,-2.321000,4.489000,29.38
0.091589,0.421000,-0.310000,-0.812000,6.504000,-0.687000,3.069000,29.47
0.092001,0.435000,-0.298000,-0.838000,4.412000,1.176000,2.473000,29.42
0.092409,0.428000,-0.300000,-0.830000,3.374000,1.954000,1.847000,29.42
0.092894,0.446000,-0.319000,-0.819000,1.679000,3.221000,0.992000,29.38
0.093417,0.447000,-0.322000,-0.825000,-0.397000,3.389000,-0.198000,29.38
0.093873,0.445000,-0.318000,-0.826000,-2.779000,3.603000,-1.115000,29.38
0.094319,0.449000,-0.321000,-0.828000,-4.733000,4.000000,-1.939000,29.42
0.094764,0.463000,-0.324000,-0.842000,-5.481000,4.336000,-2.534000,29.52
0.095252,0.451000,-0.301000,-0.830000,-6.489000,3.954000,-3.069000,29.38
0.095751,0.440000,-0.305000,-0.814000,-7.756000,3.160000,-4.305000,29.38
0.096220,0.419000,-0.304000,-0.811000,-9.985000,2.794000,-5.374000,29.42
0.096778,0.423000,-0.294000,-0.813000,-12.382000,3.634000,-5.939000,29.42
0.097273,0.439000,-0.281000,-0.831000,-13.954000,4.977000,-6.611000,29.38
0.097809,0.457000,-0.281000,-0.843000,-14.031000,5.481000,-6.382000,29.47
0.098279,0.471000,-0.261000,-0.856000,-12.626000,5.420000,-5.802000,29.33
0.098705,0.455000,-0.256000,-0.847000,-12.122000,4.351000,-5.603000,29.38
0.099143,0.448000,-0.278000,-0.828000,-12.336000,4.305000,-5.420000,29.38
0.099580,0.441000,-0.285000,-0.830000,-13.435000,4.809000,-6.076000,29.38
0.100010,0.449000,-0.286000,-0.841000,-15.511000,6.046000,-6.168000,29.42
0.100430,0.457000,-0.276000,-0.834000,-16.595000,6.168000,-6.137000,29.42
0.100861,0.461000,-0.260000,-0.845000,-16.855000,5.893000,-5.924000,29.38
0.101290,0.451000,-0.261000,-0.847000,-16.458000,4.779000,-5.939000,29.38
0.101719,0.446000,-0.266000,-0.849000,-17.160000,4.458000,-5.954000,29.33
0.102143,0.444000,-0.280000,-0.847000,-18.061000,5.160000,-6.351000,29.42
0.102568,0.445000,-0.281000,-0.829000,-19.679000,5.496000,-6.870000,29.38
0.103125,0.450000,-0.273000,-0.844000,-20.977000,5.542000,-7.130000,29.38
0.103570,0.449000,-0.277000,-0.842000,-22.580000,4.412000,-7.908000,29.52
0.103999,0.444000,-0.285000,-0.836000,-24.656000,3.939000,-8.672000,29.42
0.104443,0.460000,-0.274000,-0.841000,-26.885000,4.382000,-9.328000,29.28
0.104873,0.466000,-0.258000,-0.862000,-28.198000,3.374000,-9.893000,29.47
0.105298,0.445000,-0.262000,-0.855000,-28.489000,1.954000,-10.290000,29.42
0.105735,0.425000,-0.278000,-0.831000,-30.260000,2.015000,-12.015000,29.38
0.106291,0.439000,-0.275000,-0.825000,-32.183000,3.893000,-13.542000,29.38
0.106896,0.473000,-0.247000,-0.850000,-32.962000,6.748000,-14.321000,29.38
0.107353,0.487000,-0.214000,-0.872000,-31.969000,7.985000,-14.061000,29.42
0.107865,0.460000,-0.211000,-0.881000,-30.092000,8.870000,-13.603000,29.42
0.108330,0.461000,-0.215000,-0.888000,-28.611000,10.412000,-13.786000,29.47
0.108766,0.431000,-0.239000,-0.861000,-29.557000,14.244000,-15.344000,29.38
0.109199,0.443000,-0.222000,-0.869000,-30.076000,18.840000,-18.611000,29.42
0.109629,0.438000,-0.161000,-0.887000,-27.771000,21.313000,-22.534000,29.33
0.110064,0.416000,-0.230000,-0.879000,-33.924000,23.389000,-26.870000,29.47
0.110504,0.468000,-0.161000,-0.895000,-31.099000,29.206000,-33.908000,29.38
0.110933,0.261000,0.383000,-1.014000,-12.107000,27.878000,-55.832000,29.42
0.111362,0.675000,-0.010000,-1.193000,60.809000,16.641000,-105.115000,29.42
0.111797,0.542000,-0.316000,-0.611000,60.427000,-14.931000,-137.313000,29.47
0.112234,0.605000,-0.475000,-0.797000,65.450000,-0.519000,-154.458000,29.38
0.112761,0.560000,-0.276000,-0.792000,74.183000,1.863000,-168.244000,29.42
0.113294,0.569000,-0.139000,-0.831000,83.664000,-1.496000,-182.031000,29.38
0.113763,0.575000,-0.142000,-0.819000,98.534000,-5.740000,-194.565000,29.47
0.114196,0.600000,-0.175000,-0.816000,110.168000,-9.023000,-206.107000,29.38
0.114630,0.586000,-0.194000,-0.788000,118.061000,-11.328000,-215.466000,29.33
0.115066,0.609000,-0.176000,-0.783000,125.389000,-23.160000,-223.679000,29.33
0.115505,0.598000,-0.165000,-0.792000,132.504000,-30.076000,-231.710000,29.38
0.115990,0.584000,-0.153000,-0.796000,139.053000,-30.031000,-239.664000,29.38
0.116537,0.578000,-0.144000,-0.789000,146.626000,-31.084000,-245.939000,29.33
0.117004,0.580000,-0.139000,-0.819000,152.794000,-35.328000,-250.046000,29.33
0.117462,0.569000,-0.141000,-0.791000,156.672000,-38.641000,-252.168000,29.47
0.118038,0.559000,-0.188000,-0.777000,158.122000,-37.435000,-250.763000,29.38
0.118497,0.563000,-0.135000,-0.855000,151.802000,-51.008000,-249.237000,29.33
0.118944,0.528000,-0.122000,-0.799000,153.221000,-47.863000,-244.107000,29.42
0.119387,0.537000,-0.131000,-0.814000,149.481000,-44.427000,-237.084000,29.38
0.119822,0.543000,-0.160000,-0.843000,145.771000,-48.748000,-227.802000,29.38
0.120310,0.500000,-0.140000,-0.851000,140.824000,-52.702000,-217.527000,29.33
0.120751,0.494000,-0.131000,-0.847000,135.298000,-52.061000,-204.992000,29.33
0.121297,0.479000,-0.139000,-0.854000,127.008000,-52.015000,-191.344000,29.38
0.121741,0.479000,-0.142000,-0.882000,116.244000,-54.015000,-176.504000,29.38
0.122174,0.469000,-0.174000,-0.875000,102.534000,-54.061000,-158.031000,29.42
0.122606,0.459000,-0.174000,-0.866000,86.962000,-54.305000,-137.557000,29.42
0.123136,0.436000,-0.171000,-0.881000,71.252000,-53.496000,-115.771000,29.38
0.123706,0.434000,-0.162000,-0.892000,56.595000,-52.748000,-92.092000,29.38
0.124160,0.387000,-0.152000,-0.882000,40.489000,-50.702000,-66.779000,29.42
0.124605,0.432000,-0.198000,-0.860000,18.427000,-41.252000,-35.313000,29.42
0.125051,0.404000,-0.091000,-0.844000,-1.084000,-29.466000,-1.008000,29.47
0.125489,0.396000,0.414000,-1.031000,18.244000,-26.565000,7.878000,29.47
0.125929,0.365000,0.127000,-0.848000,28.809000,-28.779000,12.702000,29.33
0.126368,0.520000,-0.252000,-0.908000,29.893000,-17.573000,10.443000,29.33
0.126806,0.472000,-0.385000,-0.812000,19.481000,-6.794000,6.214000,29.38
0.127259,0.452000,-0.377000,-0.860000,12.244000,-10.641000,2.779000,29.38
0.127737,0.421000,-0.304000,-0.837000,10.397000,0.748000,2.198000,29.33
0.128203,0.462000,-0.240000,-0.887000,7.374000,4.214000,1.649000,29.42
0.128646,0.490000,-0.170000,-0.863000,6.656000,7.695000,2.473000,29.38
0.129084,0.492000,-0.138000,-0.875000,7.634000,5.496000,4.427000,29.47
0.129560,0.483000,-0.243000,-0.825000,6.519000,5.679000,5.557000,29.33
0.130042,0.490000,-0.306000,-0.801000,2.336000,4.565000,4.092000,29.42
0.130497,0.470000,-0.249000,-0.824000,-0.198000,8.519000,3.145000,29.47
0.130907,0.448000,-0.135000,-0.884000,0.046000,7.847000,2.626000,29.38
0.131312,0.431000,-0.116000,-0.885000,3.191000,5.237000,3.603000,29.47
0.131714,0.428000,-0.119000,-0.904000,7.466000,5.450000,5.466000,29.42
0.132124,0.407000,-0.130000,-0.885000,13.115000,2.489000,6.305000,29.52
0.132530,0.390000,-0.169000,-0.891000,15.191000,4.779000,6.046000,29.38
0.133043,0.436000,-0.193000,-0.885000,15.344000,8.687000,5.847000,29.47
0.133628,0.462000,-0.186000,-0.895000,15.542000,12.321000,5.679000,29.42
0.134084,0.466000,-0.180000,-0.886000,16.931000,12.595000,5.832000,29.42
0.134531,0.493000,-0.223000,-0.860000,17.008000,12.473000,6.061000,29.47
0.134975,0.479000,-0.261000,-0.853000,15.145000,11.618000,5.145000,29.38
0.135415,0.482000,-0.280000,-0.851000,10.275000,13.252000,3.008000,29.42
0.135843,0.490000,-0.271000,-0.837000,8.122000,2.000000,1.435000,29.33
0.136289,0.471000,-0.258000,-0.838000,7.221000,-1.252000,-0.092000,29.38
0.136721,0.449000,-0.233000,-0.855000,3.863000,6.397000,-1.282000,29.47
0.137147,0.456000,-0.222000,-0.861000,4.321000,6.672000,-2.092000,29.42
0.137578,0.448000,-0.217000,-0.877000,3.466000,11.557000,-2.412000,29.47
0.138074,0.470000,-0.209000,-0.875000,2.916000,10.550000,-2.473000,29.47
0.138596,0.484000,-0.193000,-0.883000,3.573000,8.382000,-1.511000,29.47
0.139059,0.476000,-0.213000,-0.866000,3.511000,10.137000,-0.580000,29.33
0.139468,0.470000,-0.241000,-0.848000,2.565000,11.863000,-1.176000,29.42
0.139878,0.474000,-0.256000,-0.849000,0.962000,11.573000,-2.565000,29.38
0.140295,0.482000,-0.263000,-0.842000,-1.450000,10.107000,-4.244000,29.28
0.140711,0.469000,-0.245000,-0.825000,-2.443000,8.427000,-5.588000,29.33
0.141135,0.480000,-0.242000,-0.847000,-3.969000,8.305000,-6.580000,29.52
0.141547,0.486000,-0.225000,-0.844000,-3.649000,4.534000,-6.901000,29.47
0.141958,0.497000,-0.207000,-0.850000,-3.786000,4.550000,-6.656000,29.28
0.142379,0.475000,-0.194000,-0.849000,-2.992000,5.374000,-6.153000,29.33
0.142785,0.479000,-0.194000,-0.856000,-1.634000,5.359000,-5.115000,29.33
0.143203,0.484000,-0.196000,-0.850000,-0.733000,4.076000,-4.534000,29.47
0.143613,0.484000,-0.198000,-0.851000,0.458000,3.557000,-4.107000,29.57
0.144124,0.485000,-0.215000,-0.847000,0.229000,3.435000,-3.863000,29.42
0.144684,0.472000,-0.206000,-0.843000,-0.092000,2.733000,-3.908000,29.38
0.145141,0.473000,-0.224000,-0.834000,-1.618000,1.160000,-4.458000,29.38
0.145623,0.475000,-0.214000,-0.825000,-4.260000,-1.298000,-5.740000,29.38
0.146152,0.473000,-0.229000,-0.838000,-7.160000,-2.031000,-6.947000,29.42
0.146918,0.483000,-0.227000,-0.839000,-7.618000,-3.557000,-7.603000,29.33
0.147471,0.492000,-0.214000,-0.849000,-7.405000,-4.031000,-7.466000,29.47
0.147985,0.489000,-0.210000,-0.847000,-6.824000,-4.275000,-6.962000,29.47
0.148526,0.485000,-0.211000,-0.838000,-6.718000,-4.137000,-6.382000,29.42
0.149041,0.487000,-0.203000,-0.860000,-5.725000,-3.374000,-5.282000,29.42
0.149503,0.490000,-0.198000,-0.857000,-4.672000,-2.809000,-4.092000,29.38
0.149929,0.481000,-0.208000,-0.855000,-4.061000,-2.565000,-3.252000,29.47
0.150359,0.486000,-0.206000,-0.860000,-4.076000,-1.985000,-2.519000,29.42
0.150779,0.489000,-0.209000,-0.860000,-4.107000,-1.573000,-1.847000,29.42
0.151201,0.487000,-0.220000,-0.852000,-4.901000,-1.603000,-1.573000,29.38
0.151631,0.484000,-0.215000,-0.856000,-5.450000,-1.359000,-1.634000,29.38
0.152052,0.475000,-0.213000,-0.851000,-6.443000,-1.802000,-1.786000,29.42
0.152476,0.477000,-0.222000,-0.854000,-7.725000,-1.557000,-2.275000,29.33
0.152915,0.463000,-0.217000,-0.843000,-9.038000,-0.137000,-2.870000,29.47
0.153331,0.462000,-0.211000,-0.851000,-9.191000,-0.733000,-3.389000,29.38
0.153808,0.472000,-0.203000,-0.855000,-9.374000,-0.244000,-3.740000,29.52
0.154397,0.471000,-0.183000,-0.860000,-8.580000,-0.443000,-3.359000,29.42
0.154864,0.461000,-0.177000,-0.862000,-7.359000,-0.076000,-2.351000,29.38
0.155308,0.470000,-0.171000,-0.876000,-5.878000,0.626000,-1.450000,29.38
0.155756,0.470000,-0.185000,-0.874000,-4.672000,1.374000,-0.260000,29.42
0.156210,0.478000,-0.198000,-0.865000,-4.046000,1.160000,0.458000,29.33
0.156655,0.485000,-0.188000,-0.874000,-2.901000,0.901000,1.359000,29.38
0.157079,0.466000,-0.197000,-0.863000,-1.939000,1.145000,1.832000,29.38
0.157503,0.466000,-0.228000,-0.854000,-2.092000,0.534000,1.450000,29.42
0.157997,0.457000,-0.230000,-0.857000,-3.206000,0.397000,0.733000,29.42
0.158520,0.450000,-0.237000,-0.856000,-5.084000,0.779000,-1.084000,29.38
0.159020,0.458000,-0.229000,-0.856000,-7.267000,1.099000,-2.443000,29.47
0.159506,0.493000,-0.227000,-0.855000,-8.550000,-0.595000,-3.435000,29.42
0.159960,0.478000,-0.223000,-0.860000,-10.916000,0.824000,-4.137000,29.38
0.160402,0.487000,-0.214000,-0.859000,-12.107000,0.214000,-4.427000,29.47
0.160846,0.475000,-0.204000,-0.854000,-12.992000,-0.122000,-4.962000,29.47
0.161288,0.469000,-0.189000,-0.858000,-13.771000,-0.366000,-4.885000,29.52
0.161736,0.468000,-0.179000,-0.868000,-13.725000,-0.275000,-4.565000,29.42
0.162170,0.468000,-0.171000,-0.870000,-13.496000,0.702000,-3.771000,29.38
0.162657,0.466000,-0.195000,-0.870000,-13.328000,1.466000,-3.130000,29.47
0.163122,0.461000,-0.186000,-0.875000,-13.145000,2.473000,-2.962000,29.42
0.163577,0.474000,-0.182000,-0.859000,-13.298000,4.046000,-2.687000,29.42
0.164096,0.480000,-0.187000,-0.865000,-12.977000,4.931000,-2.519000,29.47
0.164577,0.483000,-0.197000,-0.864000,-12.870000,6.565000,-2.290000,29.38
0.165011,0.479000,-0.194000,-0.864000,-12.947000,7.924000,-2.733000,29.42
0.165453,0.478000,-0.188000,-0.861000,-11.969000,10.214000,-3.191000,29.42
0.165880,0.474000,-0.201000,-0.858000,-10.977000,12.916000,-3.863000,29.38
0.166312,0.462000,-0.199000,-0.862000,-10.290000,15.221000,-5.527000,29.38
0.166768,0.405000,-0.190000,-0.839000,-12.183000,22.107000,-8.748000,29.33
0.167200,0.457000,-0.127000,-0.886000,-10.519000,26.458000,-13.145000,29.42
0.167626,0.484000,-0.058000,-0.871000,-4.336000,28.000000,-24.427000,29.38
0.168158,0.327000,0.561000,-0.936000,17.115000,27.985000,-59.298000,29.38
0.168773,0.671000,0.362000,-1.132000,82.198000,-0.702000,-116.336000,29.33
0.169221,0.631000,0.016000,-0.716000,97.740000,-11.588000,-164.351000,29.42
0.169650,0.780000,-0.019000,-0.764000,115.969000,-4.565000,-198.519000,29.38
0.170077,0.801000,0.042000,-0.725000,132.168000,-24.031000,-228.397000,29.38
0.170501,0.836000,0.107000,-0.712000,145.313000,-26.977000,-257.435000,29.42
0.170929,1.024000,-0.405000,-0.598000,175.313000,-28.901000,-276.427000,29.42
0.171422,1.099000,-0.110000,-0.540000,160.550000,-61.679000,-297.435000,29.28
0.171878,1.035000,-0.369000,-0.169000,171.573000,-8.351000,-295.618000,29.38
0.172335,1.144000,-0.486000,-0.273000,147.191000,-34.443000,-291.405000,29.42
0.172764,1.073000,-0.487000,-0.337000,145.924000,-58.611000,-271.924000,29.42
0.173209,0.972000,-0.466000,-0.383000,131.206000,-59.588000,-250.336000,29.47
0.173648,0.861000,-0.403000,-0.462000,119.603000,-55.313000,-228.763000,29.28
0.174098,0.801000,-0.397000,-0.588000,108.198000,-32.183000,-208.458000,29.33
0.174542,0.759000,-0.381000,-0.685000,93.527000,-19.679000,-190.687000,29.42
0.174977,0.660000,-0.375000,-0.781000,81.969000,-20.504000,-172.626000,29.42
0.175421,0.610000,-0.391000,-0.820000,76.107000,-23.084000,-155.069000,29.38
0.175855,0.520000,-0.416000,-0.780000,65.802000,-18.916000,-139.374000,29.42
0.176294,0.480000,-0.395000,-0.812000,56.473000,-11.130000,-125.023000,29.33
0.176724,0.472000,-0.314000,-0.857000,61.359000,-4.366000,-113.802000,29.38
0.177269,0.365000,-0.281000,-0.877000,58.947000,3.924000,-104.412000,29.47
0.177900,0.357000,-0.189000,-0.911000,66.305000,-15.634000,-99.282000,29.42
0.178380,0.294000,-0.198000,-0.959000,70.214000,-19.740000,-97.435000,29.42
0.178868,0.306000,-0.208000,-0.991000,73.725000,-10.840000,-94.809000,29.38
0.179318,0.283000,-0.241000,-0.981000,75.771000,-7.542000,-94.061000,29.38
0.179760,0.244000,-0.235000,-1.006000,73.649000,-15.191000,-90.916000,29.42
0.180333,0.237000,-0.263000,-1.085000,70.214000,-20.718000,-90.290000,29.42
0.180799,0.231000,-0.259000,-1.047000,68.489000,-26.229000,-88.382000,29.38
0.181236,0.217000,-0.244000,-1.051000,61.756000,-31.160000,-85.817000,29.28
0.181674,0.226000,-0.297000,-1.000000,63.634000,-35.740000,-80.443000,29.42
0.182111,0.204000,-0.278000,-1.029000,60.305000,-40.275000,-73.359000,29.33
0.182553,0.182000,-0.248000,-1.009000,57.420000,-45.099000,-63.817000,29.47
0.182992,0.157000,-0.266000,-0.960000,42.443000,-50.580000,-54.321000,29.38
0.183427,0.078000,-0.321000,-1.016000,30.824000,-55.664000,-34.672000,29.33
0.183875,0.095000,-0.297000,-0.962000,20.000000,-47.298000,-7.542000,29.42
0.184308,0.192000,-0.132000,-0.905000,18.626000,-35.832000,15.756000,29.47
0.184730,0.321000,0.154000,-0.961000,16.580000,-34.565000,4.962000,29.47
0.185174,0.470000,-0.055000,-1.018000,19.084000,-19.069000,1.817000,29.52
0.185593,0.556000,-0.527000,-0.766000,15.130000,-9.069000,2.260000,29.42
0.186015,0.482000,-0.540000,-0.678000,6.656000,4.748000,1.328000,29.47
0.186446,0.473000,-0.143000,-0.958000,2.687000,11.115000,0.534000,29.38
0.186857,0.418000,0.039000,-0.951000,9.756000,9.130000,4.046000,29.42
0.187287,0.501000,-0.115000,-0.887000,16.107000,13.466000,7.634000,29.33
0.187735,0.552000,-0.225000,-0.872000,20.336000,15.756000,11.649000,29.47
0.188195,0.588000,-0.385000,-0.795000,21.664000,19.603000,10.885000,29.38
0.188706,0.508000,-0.337000,-0.791000,13.008000,10.000000,8.122000,29.42
0.189345,0.418000,-0.290000,-0.781000,12.198000,1.756000,5.771000,29.38
0.189815,0.448000,-0.244000,-0.816000,14.748000,-10.947000,4.015000,29.38
0.190268,0.474000,-0.219000,-0.839000,10.595000,1.573000,3.832000,29.38
0.190721,0.484000,-0.200000,-0.844000,4.840000,12.794000,3.557000,29.42
0.191154,0.483000,-0.208000,-0.851000,8.901000,6.107000,5.038000,29.42
0.191602,0.475000,-0.191000,-0.858000,11.038000,0.534000,6.076000,29.47
0.192040,0.459000,-0.123000,-0.901000,16.305000,-3.389000,7.191000,29.47
0.192474,0.441000,-0.116000,-0.907000,21.985000,-2.290000,9.191000,29.38
0.192908,0.446000,-0.153000,-0.896000,24.046000,6.321000,10.672000,29.42
0.193348,0.460000,-0.196000,-0.887000,24.702000,12.687000,12.244000,29.42
0.193835,0.461000,-0.219000,-0.882000,26.061000,9.328000,12.824000,29.38
0.194300,0.479000,-0.269000,-0.852000,24.809000,8.107000,12.947000,29.47
0.194751,0.480000,-0.288000,-0.846000,22.092000,11.802000,12.840000,29.42
0.195200,0.493000,-0.275000,-0.845000,20.626000,10.779000,12.351000,29.42
0.195701,0.487000,-0.296000,-0.834000,18.977000,10.076000,11.435000,29.38
0.196177,0.473000,-0.325000,-0.818000,14.992000,7.008000,9.740000,29.38
0.196669,0.471000,-0.321000,-0.829000,10.229000,4.977000,7.130000,29.33
0.197194,0.458000,-0.287000,-0.836000,7.435000,4.718000,5.176000,29.42
0.197753,0.456000,-0.275000,-0.839000,5.420000,5.664000,3.939000,29.38
0.198193,0.472000,-0.261000,-0.855000,5.176000,6.275000,3.679000,29.38
0.198643,0.471000,-0.248000,-0.861000,5.863000,5.725000,3.679000,29.33
0.199125,0.477000,-0.258000,-0.860000,6.992000,4.870000,4.000000,29.42
0.199566,0.466000,-0.254000,-0.859000,7.664000,4.855000,4.550000,29.47
0.199988,0.469000,-0.274000,-0.845000,7.634000,5.252000,4.763000,29.38
0.200409,0.457000,-0.286000,-0.834000,7.878000,4.702000,3.954000,29.42
0.200824,0.462000,-0.299000,-0.826000,7.542000,4.519000,3.527000,29.52
0.201235,0.444000,-0.317000,-0.798000,5.725000,2.473000,1.695000,29.38
0.201654,0.462000,-0.319000,-0.795000,2.824000,1.573000,-0.244000,29.47
0.202072,0.448000,-0.312000,-0.787000,0.870000,0.534000,-1.542000,29.47
0.202501,0.451000,-0.297000,-0.809000,-1.481000,1.160000,-2.931000,29.42
0.202923,0.450000,-0.292000,-0.806000,-2.458000,1.481000,-3.679000,29.33
0.203360,0.448000,-0.281000,-0.822000,-2.840000,3.618000,-3.740000,29.47
0.203799,0.472000,-0.263000,-0.853000,-2.244000,4.672000,-3.542000,29.47
0.204223,0.470000,-0.255000,-0.847000,-0.305000,5.160000,-2.687000,29.33
0.204662,0.464000,-0.256000,-0.837000,0.733000,5.802000,-1.710000,29.42
0.205189,0.463000,-0.267000,-0.824000,2.168000,6.061000,-1.191000,29.28
0.205635,0.464000,-0.274000,-0.826000,2.809000,6.183000,-0.763000,29.38
0.206052,0.468000,-0.282000,-0.827000,3.252000,6.305000,-0.565000,29.52
0.206481,0.490000,-0.301000,-0.867000,1.771000,4.962000,-0.519000,29.52
0.206903,0.476000,-0.274000,-0.847000,1.145000,17.618000,-0.137000,29.38
0.207321,0.473000,-0.286000,-0.834000,6.031000,4.641000,0.351000,29.38
0.207738,0.466000,-0.298000,-0.828000,3.771000,7.786000,0.611000,29.33
0.208150,0.465000,-0.292000,-0.829000,3.710000,7.496000,0.397000,29.38
0.208574,0.475000,-0.293000,-0.834000,2.519000,10.153000,-0.015000,29.47
0.209069,0.482000,-0.289000,-0.826000,1.710000,10.427000,-0.107000,29.38
0.209614,0.487000,-0.290000,-0.830000,2.183000,6.305000,0.107000,29.42
0.210058,0.488000,-0.294000,-0.836000,1.481000,4.870000,0.031000,29.42
0.210497,0.474000,-0.295000,-0.831000,1.756000,2.183000,-0.153000,29.38
0.210941,0.485000,-0.295000,-0.836000,1.069000,2.931000,-0.641000,29.47
0.211389,0.486000,-0.292000,-0.824000,0.733000,2.855000,-0.534000,29.42
0.211834,0.481000,-0.293000,-0.827000,0.214000,1.908000,-0.718000,29.33
0.212275,0.483000,-0.302000,-0.835000,-0.336000,2.534000,-0.626000,29.47
0.212717,0.493000,-0.287000,-0.829000,-0.534000,2.290000,-0.504000,29.38
0.213187,0.479000,-0.290000,-0.829000,-0.443000,2.321000,0.092000,29.42
0.213655,0.474000,-0.277000,-0.833000,0.198000,2.107000,0.412000,29.42
0.214098,0.476000,-0.285000,-0.835000,0.733000,2.137000,0.718000,29.38
0.214507,0.474000,-0.281000,-0.837000,1.557000,2.489000,1.328000,29.47
0.214926,0.471000,-0.292000,-0.848000,2.168000,3.023000,1.527000,29.33
0.215343,0.471000,-0.308000,-0.822000,1.481000,3.893000,1.206000,29.42
0.215760,0.473000,-0.324000,-0.825000,0.137000,4.076000,0.458000,29.38
0.216189,0.473000,-0.344000,-0.817000,-2.534000,4.015000,-0.947000,29.47
0.216616,0.475000,-0.331000,-0.809000,-5.725000,3.985000,-2.412000,29.42
0.217042,0.466000,-0.322000,-0.792000,-8.794000,3.985000,-3.969000,29.42
0.217466,0.469000,-0.339000,-0.800000,-12.076000,3.573000,-5.527000,29.47
0.217897,0.482000,-0.327000,-0.799000,-15.023000,3.267000,-7.099000,29.38
0.218321,0.469000,-0.308000,-0.822000,-16.687000,3.557000,-8.443000,29.38
0.218760,0.469000,-0.292000,-0.812000,-17.420000,3.832000,-9.221000,29.33
0.219314,0.465000,-0.266000,-0.820000,-19.802000,4.366000,-9.817000,29.42
0.219894,0.484000,-0.275000,-0.832000,-18.198000,1.313000,-9.740000,29.47
0.220353,0.485000,-0.270000,-0.835000,-15.863000,-3.038000,-9.221000,29.38
0.220817,0.482000,-0.248000,-0.838000,-15.405000,-1.099000,-8.641000,29.33
0.221303,0.479000,-0.249000,-0.837000,-14.718000,2.809000,-7.924000,29.33
0.221773,0.478000,-0.250000,-0.841000,-13.130000,1.786000,-6.702000,29.38
0.222247,0.475000,-0.249000,-0.861000,-11.466000,0.733000,-6.000000,29.47
0.222665,0.483000,-0.233000,-0.849000,-9.359000,1.252000,-4.748000,29.33
0.223085,0.481000,-0.245000,-0.868000,-7.573000,1.359000,-3.908000,29.33
0.223510,0.480000,-0.267000,-0.839000,-7.786000,1.679000,-3.771000,29.47
0.223948,0.479000,-0.283000,-0.832000,-6.595000,-1.084000,-4.702000,29.38
0.224380,0.491000,-0.289000,-0.811000,-10.992000,-0.183000,-5.542000,29.42
0.224800,0.468000,-0.299000,-0.815000,-12.885000,-2.137000,-7.099000,29.38
0.225221,0.487000,-0.301000,-0.812000,-16.916000,-1.450000,-8.336000,29.38
0.225645,0.491000,-0.287000,-0.820000,-20.046000,-2.275000,-10.031000,29.38
0.226075,0.491000,-0.283000,-0.822000,-22.702000,-2.519000,-11.298000,29.42
0.226507,0.484000,-0.271000,-0.854000,-24.580000,-1.115000,-11.573000,29.33
0.226936,0.503000,-0.252000,-0.844000,-25.405000,-2.534000,-11.969000,29.28
0.227365,0.497000,-0.228000,-0.862000,-23.237000,-3.344000,-11.527000,29.38
0.227803,0.507000,-0.221000,-0.872000,-19.969000,-3.969000,-10.534000,29.33
0.228231,0.509000,-0.207000,-0.860000,-15.756000,-3.771000,-8.580000,29.42
0.228667,0.497000,-0.181000,-0.870000,-11.740000,-4.351000,-6.565000,29.38
0.229180,0.489000,-0.183000,-0.872000,-8.580000,-4.519000,-4.763000,29.47
0.229770,0.471000,-0.181000,-0.865000,-5.893000,-2.672000,-3.527000,29.33
0.230233,0.449000,-0.200000,-0.870000,-3.969000,0.351000,-3.466000,29.33
0.230645,0.466000,-0.204000,-0.869000,-1.878000,4.809000,-3.313000,29.38
0.231053,0.464000,-0.186000,-0.862000,0.595000,8.626000,-4.031000,29.38
0.231464,0.456000,-0.175000,-0.859000,3.969000,10.504000,-6.229000,29.42
0.231887,0.469000,-0.095000,-0.870000,2.397000,11.389000,-12.885000,29.33
0.232301,0.486000,-0.003000,-0.846000,4.351000,4.137000,-23.374000,29.42
0.232710,0.483000,0.257000,-0.865000,7.160000,-0.840000,-48.061000,29.47
0.233130,0.552000,0.250000,-0.918000,12.351000,-6.015000,-77.298000,29.38
0.233557,0.663000,0.245000,-0.940000,26.550000,-18.534000,-103.206000,29.33
0.234000,0.678000,0.262000,-0.875000,33.664000,-24.031000,-127.053000,29.47
0.234435,0.824000,0.084000,-0.931000,38.626000,-36.947000,-143.405000,29.47
0.234873,0.843000,0.015000,-0.886000,42.870000,-46.107000,-150.977000,29.38
0.235320,0.776000,-0.177000,-0.672000,39.221000,-42.366000,-153.206000,29.42
0.235760,1.074000,0.134000,-0.371000,69.374000,-35.817000,-157.985000,29.42
0.236184,0.624000,-0.682000,0.035000,77.908000,-13.817000,-137.634000,29.38
0.236610,1.143000,-0.750000,-0.369000,54.779000,11.389000,-128.962000,29.38
0.237054,0.916000,-0.679000,-0.390000,33.985000,18.214000,-109.267000,29.33
0.237475,0.883000,-0.418000,-0.481000,34.656000,25.695000,-88.885000,29.42
0.237921,0.743000,-0.350000,-0.477000,43.618000,36.626000,-75.176000,29.38
0.238392,0.715000,-0.334000,-0.550000,47.374000,45.924000,-65.573000,29.47
0.238879,0.692000,-0.322000,-0.661000,42.870000,49.878000,-58.977000,29.42
0.239455,0.742000,-0.333000,-1.045000,43.557000,40.809000,-52.504000,29.33
0.240061,0.601000,-0.361000,-1.061000,30.290000,23.206000,-49.115000,29.38
0.240604,0.353000,-0.189000,-0.721000,20.626000,11.359000,-49.359000,29.38
0.241100,0.352000,-0.169000,-0.900000,23.588000,8.748000,-52.168000,29.42
0.241564,0.348000,-0.207000,-1.080000,26.809000,0.214000,-51.130000,29.38
0.242071,0.230000,-0.245000,-0.955000,28.015000,-0.809000,-51.160000,29.38
0.242535,0.106000,-0.261000,-0.876000,29.328000,-3.786000,-52.092000,29.38
0.242966,-0.006000,-0.299000,-1.003000,31.420000,-11.237000,-54.290000,29.42
0.243398,-0.083000,-0.435000,-1.289000,27.985000,-26.901000,-53.389000,29.33
0.243896,-0.240000,-0.441000,-1.406000,26.046000,-43.344000,-52.901000,29.38
0.244458,-0.346000,-0.376000,-1.304000,25.847000,-64.198000,-55.267000,29.38
0.244924,0.159000,-0.353000,-0.916000,16.443000,-65.191000,-57.969000,29.33
0.245376,0.738000,-0.393000,-0.780000,-9.511000,-51.939000,-47.771000,29.42
0.245836,0.640000,-0.068000,-0.860000,-19.328000,-50.122000,-26.244000,29.38
0.246325,0.505000,0.246000,-0.781000,-13.954000,-18.092000,-9.145000,29.47
0.246822,0.532000,0.186000,-1.070000,2.687000,-25.496000,3.435000,29.42
0.247262,0.300000,-0.128000,-0.959000,8.214000,-24.489000,7.313000,29.33
0.247694,0.466000,-0.207000,-1.140000,16.794000,-47.221000,1.176000,29.47
0.248111,0.547000,-0.279000,-0.793000,7.237000,-12.290000,-1.359000,29.28
0.248538,0.547000,-0.218000,-0.856000,4.626000,-10.794000,-0.427000,29.33
0.248959,0.521000,-0.191000,-0.815000,2.855000,-2.672000,0.550000,29.38
0.249463,0.480000,-0.052000,-0.924000,1.298000,5.863000,1.786000,29.38
0.249893,0.446000,-0.166000,-0.848000,0.611000,12.229000,0.519000,29.42
0.250312,0.499000,-0.218000,-0.854000,5.603000,0.748000,-0.641000,29.42
0.250732,0.458000,-0.222000,-0.804000,4.473000,-2.107000,-0.992000,29.47
0.251147,0.503000,-0.233000,-0.859000,2.061000,-6.366000,-2.504000,29.38
0.251567,0.467000,-0.205000,-0.854000,0.489000,-4.168000,-4.092000,29.33
0.251989,0.483000,-0.170000,-0.866000,0.733000,-4.702000,-4.901000,29.42
0.252410,0.486000,-0.146000,-0.856000,1.649000,-8.336000,-4.763000,29.38
0.252829,0.478000,-0.137000,-0.854000,3.435000,-10.611000,-3.008000,29.47
0.253261,0.444000,-0.152000,-0.844000,3.603000,-2.656000,-2.443000,29.33
0.253776,0.433000,-0.164000,-0.860000,4.458000,1.450000,-3.053000,29.33
0.254361,0.449000,-0.182000,-0.846000,4.489000,3.389000,-4.244000,29.47
0.254863,0.470000,-0.175000,-0.869000,3.374000,1.649000,-4.855000,29.38
0.255333,0.447000,-0.182000,-0.848000,4.260000,0.702000,-4.397000,29.42
0.255770,0.465000,-0.193000,-0.866000,1.237000,2.763000,-5.099000,29.42
0.256186,0.485000,-0.181000,-0.865000,-0.595000,2.763000,-5.344000,29.38
0.256599,0.466000,-0.188000,-0.859000,-1.893000,-1.588000,-5.252000,29.38
0.257014,0.484000,-0.229000,-0.860000,-2.779000,-1.420000,-6.489000,29.42
0.257426,0.494000,-0.226000,-0.833000,-4.336000,1.588000,-7.191000,29.42
0.257840,0.500000,-0.198000,-0.865000,-6.840000,4.244000,-7.221000,29.47
0.258251,0.464000,-0.136000,-0.861000,-5.252000,-5.069000,-6.504000,29.38
0.258680,0.490000,-0.179000,-0.858000,-3.817000,-4.977000,-6.290000,29.42
0.259211,0.480000,-0.171000,-0.862000,-5.649000,-2.046000,-5.130000,29.42
0.259785,0.486000,-0.167000,-0.885000,-6.061000,-2.550000,-4.427000,29.38
0.260236,0.455000,-0.146000,-0.831000,-7.160000,3.771000,-3.405000,29.47
0.260682,0.499000,-0.192000,-0.885000,-6.305000,0.947000,-1.649000,29.42
0.261132,0.508000,-0.162000,-0.890000,-4.626000,-5.557000,-1.389000,29.42
0.261613,0.498000,-0.166000,-0.881000,-4.641000,-1.267000,-0.870000,29.38
0.262484,0.481000,-0.151000,-0.877000,-3.557000,-3.802000,-0.504000,29.38
0.262953,0.470000,-0.165000,-0.870000,-3.176000,1.817000,0.046000,29.33
0.263439,0.481000,-0.173000,-0.867000,-3.817000,2.443000,0.107000,29.33
0.263907,0.479000,-0.170000,-0.865000,-2.611000,1.206000,0.305000,29.38
0.264336,0.474000,-0.161000,-0.873000,-2.214000,0.656000,0.305000,29.47
0.264746,0.467000,-0.173000,-0.864000,-2.565000,1.160000,0.321000,29.42
0.265177,0.472000,-0.163000,-0.871000,-2.015000,0.351000,0.656000,29.42
0.265613,0.470000,-0.150000,-0.865000,-2.336000,1.664000,1.267000,29.38
0.266031,0.468000,-0.160000,-0.868000,-1.252000,1.359000,1.924000,29.38
0.266442,0.466000,-0.163000,-0.867000,-0.809000,1.527000,2.183000,29.42
0.266855,0.467000,-0.161000,-0.876000,-0.244000,2.611000,2.840000,29.52
0.267284,0.464000,-0.169000,-0.864000,-0.046000,2.672000,3.023000,29.38
0.267689,0.464000,-0.168000,-0.870000,0.382000,3.802000,3.359000,29.38
0.268106,0.465000,-0.164000,-0.873000,1.298000,3.374000,3.679000,29.42
0.268522,0.461000,-0.174000,-0.868000,0.931000,2.840000,3.863000,29.42
0.268945,0.469000,-0.186000,-0.887000,0.137000,1.649000,3.649000,29.42
0.269381,0.490000,-0.177000,-0.855000,-1.969000,3.176000,2.702000,29.38
0.269802,0.495000,-0.191000,-0.891000,0.733000,-5.298000,3.053000,29.57
0.270234,0.463000,-0.170000,-0.859000,-2.214000,7.344000,2.687000,29.33
0.270659,0.453000,-0.180000,-0.855000,-1.817000,6.443000,2.763000,29.38
0.271096,0.459000,-0.172000,-0.871000,-1.176000,1.511000,3.405000,29.38
0.271666,0.469000,-0.165000,-0.870000,-4.992000,7.817000,3.252000,29.38
0.272113,0.441000,-0.177000,-0.844000,-3.130000,8.198000,3.389000,29.42
0.272646,0.464000,-0.158000,-0.867000,-3.099000,6.519000,2.611000,29.42
0.273082,0.451000,-0.158000,-0.855000,-2.397000,4.595000,2.718000,29.38
0.273498,0.464000,-0.167000,-0.866000,0.458000,2.061000,2.412000,29.38
0.273936,0.465000,-0.169000,-0.875000,-1.191000,3.084000,2.382000,29.42
0.274352,0.464000,-0.166000,-0.862000,-1.405000,4.824000,2.626000,29.33
0.274775,0.460000,-0.169000,-0.859000,-0.687000,4.641000,2.534000,29.38
0.275208,0.453000,-0.178000,-0.863000,-1.023000,4.183000,2.290000,29.38
0.275657,0.466000,-0.185000,-0.862000,-2.626000,2.031000,1.664000,29.42
0.276094,0.461000,-0.183000,-0.854000,-2.824000,4.000000,1.557000,29.42
0.276511,0.454000,-0.186000,-0.864000,-3.099000,4.580000,0.382000,29.38
0.276937,0.460000,-0.186000,-0.861000,-3.985000,3.817000,-0.504000,29.38
0.277354,0.460000,-0.179000,-0.862000,-6.534000,0.901000,-1.099000,29.42
0.277783,0.458000,-0.188000,-0.847000,-6.870000,1.069000,-1.282000,29.47
0.278214,0.470000,-0.175000,-0.882000,-6.092000,-5.908000,-2.168000,29.38
0.278633,0.414000,-0.185000,-0.871000,-5.160000,6.214000,-2.260000,29.38
0.279064,0.439000,-0.139000,-0.834000,-3.237000,-4.214000,-3.908000,29.42
0.279495,0.466000,-0.146000,-0.844000,-5.969000,-5.420000,-4.550000,29.42
0.280004,0.434000,-0.166000,-0.852000,-11.389000,-8.824000,-6.321000,29.38
0.280445,0.465000,-0.119000,-0.858000,-6.244000,-17.664000,-5.420000,29.47
0.280864,0.457000,-0.235000,-0.815000,-3.557000,-1.511000,-2.351000,29.42
0.281285,0.449000,-0.125000,-0.899000,-7.221000,-0.595000,-2.153000,29.33
0.281711,0.440000,-0.181000,-0.872000,-5.038000,-5.252000,-1.664000,29.38
0.282126,0.443000,-0.216000,-0.835000,-5.466000,2.458000,-1.802000,29.38
0.282649,0.434000,-0.173000,-0.867000,-4.473000,5.634000,-1.679000,29.42
0.283276,0.452000,-0.196000,-0.874000,-6.290000,9.893000,-2.046000,29.33
0.283786,0.469000,-0.158000,-0.867000,-6.702000,5.099000,-2.534000,29.38
0.284246,0.466000,-0.158000,-0.899000,-5.802000,-0.641000,-2.076000,29.47
0.284672,0.459000,-0.158000,-0.874000,-5.466000,0.198000,-1.679000,29.33
0.285100,0.441000,-0.160000,-0.866000,-3.206000,2.015000,-1.389000,29.47
0.285522,0.448000,-0.169000,-0.854000,-2.366000,10.275000,-0.687000,29.28
0.285945,0.457000,-0.151000,-0.870000,-2.473000,11.160000,-0.260000,29.47
0.286364,0.457000,-0.153000,-0.880000,-2.626000,12.061000,-0.153000,29.33
0.286916,0.471000,-0.138000,-0.887000,-4.092000,7.939000,-0.840000,29.42
0.287560,0.461000,-0.145000,-0.891000,-3.679000,4.611000,-0.748000,29.38
0.288046,0.461000,-0.139000,-0.887000,-2.290000,2.198000,-0.779000,29.38
0.288615,0.469000,-0.139000,-0.891000,-0.794000,-1.542000,-0.595000,29.42
0.289076,0.471000,-0.160000,-0.885000,-0.947000,-2.290000,-0.580000,29.33
0.289504,0.455000,-0.165000,-0.867000,-0.458000,-0.305000,-0.702000,29.28
0.289929,0.454000,-0.161000,-0.847000,-1.008000,3.298000,-0.626000,29.47
0.290362,0.452000,-0.169000,-0.876000,-0.336000,3.634000,-0.076000,29.33
0.290781,0.458000,-0.174000,-0.875000,-1.160000,1.374000,-0.885000,29.42
0.291194,0.453000,-0.152000,-0.871000,-1.817000,5.740000,-0.687000,29.38
0.291600,0.463000,-0.146000,-0.884000,-0.412000,2.977000,-1.450000,29.47
0.292016,0.483000,-0.148000,-0.884000,-1.954000,0.427000,-1.374000,29.42
0.292450,0.460000,-0.142000,-0.872000,-1.969000,1.252000,-0.626000,29.33
0.292866,0.439000,-0.179000,-0.881000,-3.740000,-8.656000,-2.122000,29.47
0.293276,0.444000,-0.160000,-0.897000,-0.885000,4.779000,0.183000,29.47
0.293691,0.431000,-0.157000,-0.856000,0.931000,0.748000,-0.473000,29.42
0.294102,0.449000,-0.166000,-0.878000,-0.336000,6.061000,0.183000,29.42
0.294515,0.453000,-0.166000,-0.865000,-1.252000,6.046000,-0.412000,29.38
0.294948,0.484000,-0.015000,-0.920000,-2.046000,4.916000,-1.985000,29.28
0.295369,0.468000,-0.158000,-0.891000,0.244000,2.733000,0.183000,29.33
0.295784,0.449000,-0.163000,-0.864000,-0.412000,0.122000,0.473000,29.42
0.296326,0.444000,-0.177000,-0.875000,-0.687000,-1.679000,0.336000,29.47
0.296782,0.446000,-0.174000,-0.881000,-0.931000,1.191000,0.168000,29.38
0.297189,0.450000,-0.178000,-0.877000,-0.870000,4.015000,0.137000,29.33
0.297636,0.445000,-0.172000,-0.864000,-1.160000,6.397000,-0.275000,29.42
0.298061,0.446000,-0.167000,-0.861000,-1.176000,7.603000,-0.382000,29.47
0.298599,0.455000,-0.168000,-0.868000,-0.718000,7.069000,-0.153000,29.38
0.299241,0.449000,-0.164000,-0.874000,-0.336000,6.427000,0.046000,29.38
0.299738,0.465000,-0.158000,-0.877000,-0.565000,4.443000,-0.473000,29.42
0.300192,0.463000,-0.164000,-0.876000,-1.695000,3.496000,-0.702000,29.42
0.300671,0.464000,-0.162000,-0.866000,-2.092000,1.985000,-1.069000,29.38
0.301114,0.451000,-0.157000,-0.866000,-2.076000,1.786000,-1.176000,29.38
0.301548,0.454000,-0.159000,-0.867000,-1.756000,1.069000,-1.221000,29.42
0.301971,0.455000,-0.162000,-0.867000,-0.931000,1.344000,-0.824000,29.38
0.302387,0.451000,-0.163000,-0.874000,-0.290000,1.496000,-0.565000,29.38
0.302798,0.463000,-0.170000,-0.880000,0.382000,-1.069000,-0.382000,29.47
0.303214,0.502000,-0.141000,-0.905000,-1.603000,1.359000,-1.069000,29.33
0.303639,0.485000,-0.122000,-0.904000,-3.206000,5.634000,-1.817000,29.42
0.304063,0.447000,-0.199000,-0.854000,-5.634000,-0.733000,-3.282000,29.47
0.304504,0.432000,-0.189000,-0.865000,-5.450000,-0.061000,-3.053000,29.38
0.304943,0.786000,0.378000,-1.169000,-10.092000,22.489000,-5.130000,29.33
0.305387,0.427000,-0.106000,-0.761000,-7.282000,21.313000,-3.389000,29.42
0.305806,0.468000,-0.151000,-0.897000,-2.595000,-7.878000,-4.107000,29.47
0.306228,0.426000,-0.150000,-0.894000,-0.458000,2.763000,-1.786000,29.38
0.306663,0.459000,-0.143000,-0.873000,1.985000,-0.336000,-0.611000,29.42
0.307077,0.425000,-0.149000,-0.865000,3.649000,7.252000,1.038000,29.42
0.307493,0.456000,-0.183000,-0.867000,2.763000,9.389000,1.008000,29.38
0.307908,0.461000,-0.152000,-0.864000,1.008000,10.977000,1.053000,29.38
0.308411,0.462000,-0.173000,-0.868000,1.542000,10.626000,1.496000,29.42
0.309023,0.464000,-0.168000,-0.880000,0.092000,10.076000,0.870000,29.38
0.309478,0.450000,-0.157000,-0.874000,0.809000,8.229000,1.344000,29.38
0.309973,0.450000,-0.166000,-0.859000,2.366000,11.771000,2.779000,29.47
0.310427,0.462000,-0.171000,-0.863000,2.397000,11.817000,3.405000,29.42
0.310876,0.461000,-0.171000,-0.858000,1.985000,11.893000,3.511000,29.42
0.311316,0.416000,-0.214000,-0.811000,3.038000,20.351000,6.901000,29.38
0.311762,0.484000,-0.168000,-0.877000,-0.260000,25.542000,6.290000,29.38
0.312202,0.507000,-0.162000,-0.885000,-1.588000,16.763000,4.550000,29.42
0.312672,0.485000,-0.154000,-0.861000,-3.160000,10.641000,2.489000,29.42
0.313150,0.495000,-0.160000,-0.896000,-1.008000,-1.802000,0.809000,29.38
0.313612,0.481000,-0.159000,-0.882000,-0.885000,-3.527000,0.046000,29.38
0.314029,0.474000,-0.161000,-0.871000,-0.046000,-0.855000,-0.412000,29.42
0.314449,0.459000,-0.171000,-0.858000,-1.237000,1.435000,-0.931000,29.42
0.314885,0.479000,-0.159000,-0.878000,-2.031000,-2.870000,-1.069000,29.38
0.315308,0.470000,-0.158000,-0.867000,-0.962000,-6.519000,-1.313000,29.38
0.315716,0.334000,-0.019000,-0.632000,1.939000,5.786000,-1.649000,29.42
0.316150,0.449000,-0.186000,-0.775000,-0.611000,-3.939000,-1.176000,29.38
0.316567,0.478000,-0.182000,-0.872000,0.855000,-4.824000,-0.962000,29.28
0.317003,0.417000,-0.185000,-0.820000,2.366000,-6.198000,-0.229000,29.47
0.317415,0.458000,-0.205000,-0.858000,-0.122000,1.084000,-0.916000,29.33
0.317840,0.453000,-0.171000,-0.875000,0.137000,5.573000,-0.611000,29.52
0.318329,0.459000,-0.188000,-0.865000,-0.550000,5.740000,-0.519000,29.38
0.318908,0.457000,-0.178000,-0.870000,-1.420000,4.046000,-0.626000,29.47
0.319367,0.468000,-0.177000,-0.861000,-1.725000,2.504000,-0.382000,29.42
0.319851,0.463000,-0.173000,-0.867000,-1.924000,1.344000,-0.489000,29.42
0.320291,0.451000,-0.183000,-0.867000,-1.878000,2.153000,-0.870000,29.47
0.320713,0.456000,-0.173000,-0.865000,-2.397000,3.466000,-0.947000,29.38
0.321152,0.763000,-0.028000,-1.267000,-11.786000,-10.687000,-6.336000,29.24
0.321591,0.456000,-0.025000,-0.929000,-4.962000,2.702000,-3.649000,29.33
0.322028,0.500000,-0.094000,-0.918000,-0.275000,3.389000,-0.840000,29.47
0.322459,0.460000,-0.180000,-0.876000,1.710000,-8.351000,-1.099000,29.38
0.322913,0.448000,-0.231000,-0.794000,-1.420000,11.695000,0.565000,29.38
0.323329,0.476000,-0.201000,-0.867000,-1.344000,1.802000,-2.076000,29.33
0.323751,0.462000,-0.264000,-0.829000,-10.870000,24.977000,0.305000,29.42
0.324169,0.495000,-0.148000,-0.793000,-25.328000,13.710000,3.282000,29.38
0.324585,0.559000,-0.240000,-0.911000,-4.366000,26.656000,-2.229000,29.38
0.325008,0.497000,-0.160000,-0.871000,1.542000,-4.153000,-4.687000,29.33
0.325432,0.468000,-0.160000,-0.843000,0.855000,-14.015000,-2.763000,29.38
0.325850,0.453000,-0.165000,-0.848000,0.092000,-4.641000,-2.626000,29.38
0.326281,0.465000,-0.190000,-0.830000,-0.412000,11.313000,-2.458000,29.38
0.326696,0.489000,-0.174000,-0.870000,-1.893000,11.252000,-2.244000,29.42
0.327113,0.490000,-0.146000,-0.879000,-1.237000,3.511000,-3.176000,29.33
0.327540,0.480000,-0.157000,-0.859000,-0.305000,-0.260000,-3.359000,29.28
0.327949,0.455000,-0.183000,-0.839000,1.924000,1.481000,-2.122000,29.38
0.328466,0.467000,-0.182000,-0.845000,0.718000,2.626000,-1.527000,29.33
0.329049,0.464000,-0.195000,-0.843000,0.779000,10.855000,-0.962000,29.33
0.329511,0.466000,-0.149000,-0.851000,0.916000,13.954000,-0.198000,29.28
0.329987,0.491000,-0.151000,-0.870000,1.145000,11.206000,-0.275000,29.38
0.330428,0.477000,-0.163000,-0.858000,1.313000,8.321000,-0.580000,29.42
0.330855,0.486000,-0.140000,-0.875000,1.389000,1.908000,-1.588000,29.33
0.331286,0.476000,-0.195000,-0.827000,0.305000,-5.160000,-2.443000,29.47
0.331710,0.433000,-0.169000,-0.994000,-10.794000,3.115000,-3.115000,29.38
0.332126,0.470000,-0.130000,-0.802000,-15.298000,3.908000,0.534000,29.33
0.332544,0.628000,-0.119000,-0.842000,19.206000,-81.023000,-1.527000,29.47
0.332963,0.528000,-0.193000,-0.908000,-2.687000,16.992000,-1.389000,29.47
0.333383,0.501000,-0.182000,-0.889000,-3.924000,11.817000,-1.282000,29.38
0.333803,0.454000,-0.188000,-0.835000,-5.786000,19.771000,-1.252000,29.42
0.334220,0.473000,-0.162000,-0.860000,-0.504000,1.466000,-0.733000,29.33
0.334637,0.487000,-0.137000,-0.865000,1.435000,-4.290000,-1.176000,29.28
0.335065,0.512000,-0.163000,-0.856000,-0.229000,2.458000,-1.939000,29.47
0.335486,0.489000,-0.162000,-0.849000,-1.160000,-8.031000,-2.565000,29.42
0.335913,0.485000,-0.191000,-0.865000,-0.992000,-11.298000,-3.252000,29.42
0.336334,0.466000,-0.173000,-0.853000,-0.870000,-12.916000,-3.649000,29.38
0.336755,0.468000,-0.181000,-0.869000,-1.176000,-2.611000,-2.870000,29.47
0.337169,0.418000,-0.273000,-0.860000,-2.534000,8.351000,-1.130000,29.42
0.337605,0.437000,-0.158000,-0.832000,-1.053000,5.252000,0.473000,29.42
0.338037,0.463000,-0.164000,-0.852000,-1.160000,4.290000,0.229000,29.38
0.338563,0.484000,-0.175000,-0.861000,-1.389000,3.771000,0.092000,29.28
0.339206,0.477000,-0.191000,-0.853000,-2.962000,5.084000,-0.275000,29.42
0.339672,0.478000,-0.182000,-0.853000,-4.580000,6.244000,-0.733000,29.38
0.340173,0.483000,-0.156000,-0.865000,-4.443000,5.573000,-1.069000,29.47
0.340641,0.474000,-0.163000,-0.857000,-4.153000,3.466000,-1.863000,29.47
0.341095,0.483000,-0.167000,-0.864000,-4.107000,1.832000,-1.939000,29.42
0.341541,0.476000,-0.161000,-0.859000,-3.023000,0.031000,-1.817000,29.42
0.342011,0.485000,-0.166000,-0.860000,-1.939000,0.214000,-1.420000,29.38
0.342445,0.474000,-0.162000,-0.857000,-1.435000,0.336000,-1.115000,29.47
0.342856,0.471000,-0.166000,-0.856000,-0.763000,0.947000,-0.672000,29.42
0.343273,0.472000,-0.158000,-0.856000,-0.015000,3.084000,-0.168000,29.33
0.343679,0.458000,-0.146000,-0.844000,1.481000,6.412000,1.573000,29.38
0.344081,0.478000,-0.137000,-0.866000,1.511000,5.969000,1.221000,29.47
0.344488,0.492000,-0.175000,-0.862000,0.443000,6.656000,1.588000,29.42
0.344913,0.467000,-0.176000,-0.863000,-0.107000,5.588000,1.725000,29.42
0.345329,0.501000,-0.167000,-0.857000,-2.366000,2.137000,-1.466000,29.38
0.345748,0.507000,-0.128000,-0.896000,-1.038000,6.198000,-1.359000,29.47
0.346187,0.372000,-0.168000,-0.816000,1.115000,5.527000,0.122000,29.42
0.346598,0.500000,-0.191000,-0.859000,-1.771000,6.443000,-1.282000,29.38
0.347014,0.473000,-0.172000,-0.866000,-2.489000,1.069000,-0.794000,29.38
0.347446,0.474000,-0.168000,-0.867000,-1.710000,-1.313000,-0.672000,29.38
0.347867,0.468000,-0.182000,-0.859000,-1.939000,-0.534000,-0.718000,29.42
0.348284,0.469000,-0.181000,-0.848000,-2.427000,0.840000,-1.359000,29.33
0.348867,0.474000,-0.189000,-0.851000,-4.382000,4.015000,-2.305000,29.38
0.349360,0.478000,-0.222000,-0.882000,-5.847000,3.634000,-3.038000,29.38
0.349859,0.452000,-0.250000,-0.886000,-6.641000,3.023000,-2.916000,29.42
0.350347,0.494000,-0.164000,-0.877000,-7.756000,-2.702000,-5.176000,29.42
0.350809,0.489000,-0.127000,-0.840000,-8.275000,-9.420000,-6.229000,29.38
0.351259,0.466000,-0.073000,-0.736000,-2.870000,0.275000,-2.458000,29.47
0.351715,0.477000,-0.070000,-0.894000,-2.855000,-12.061000,-3.282000,29.33
0.352169,0.450000,-0.163000,-0.858000,-1.985000,-8.611000,-1.603000,29.42
0.352607,0.464000,-0.163000,-0.871000,-4.947000,-1.221000,-2.046000,29.38
0.353042,0.474000,-0.191000,-0.856000,-2.687000,7.786000,-1.084000,29.47
0.353481,0.465000,-0.144000,-0.880000,-2.840000,7.786000,-1.649000,29.33
0.353921,0.453000,-0.157000,-0.849000,-0.031000,5.802000,-1.176000,29.47
0.354387,0.473000,-0.175000,-0.871000,2.092000,1.863000,-0.641000,29.38
0.354879,0.454000,-0.176000,-0.854000,0.962000,-2.565000,0.061000,29.47
0.355344,0.460000,-0.167000,-0.872000,-0.321000,-1.374000,0.336000,29.33
0.355788,0.471000,-0.188000,-0.857000,-0.702000,3.954000,0.794000,29.42
0.356212,0.459000,-0.163000,-0.861000,-0.840000,9.282000,0.794000,29.47
0.356630,0.466000,-0.155000,-0.863000,0.183000,12.550000,0.977000,29.38
0.357054,0.470000,-0.159000,-0.865000,0.580000,10.931000,1.023000,29.42
0.357463,0.482000,-0.161000,-0.865000,0.489000,7.511000,0.916000,29.42
0.357873,0.472000,-0.171000,-0.856000,0.305000,4.794000,0.641000,29.28
0.358284,0.477000,-0.165000,-0.861000,-0.015000,3.817000,0.076000,29.38
0.358808,0.475000,-0.166000,-0.859000,-0.565000,3.023000,-0.137000,29.33
0.359348,0.477000,-0.158000,-0.869000,-0.809000,2.107000,-0.275000,29.42
0.359847,0.466000,-0.156000,-0.874000,-0.733000,2.107000,-0.183000,29.47
0.360313,0.476000,-0.171000,-0.864000,-0.611000,2.489000,-0.076000,29.47
0.360758,0.476000,-0.166000,-0.860000,-0.244000,3.954000,0.122000,29.42
0.361213,0.493000,-0.203000,-0.890000,0.336000,3.191000,0.504000,29.42
0.361682,0.463000,-0.212000,-0.894000,-1.618000,10.931000,1.954000,29.28
0.362119,0.485000,-0.156000,-0.878000,1.527000,6.260000,1.374000,29.38
0.362602,0.484000,-0.180000,-0.849000,2.458000,5.191000,1.573000,29.52
0.363109,0.737000,-0.076000,-0.971000,-10.687000,-13.344000,-15.160000,29.42
0.363610,0.535000,-0.116000,-0.981000,-6.473000,13.420000,-0.305000,29.38
0.364090,0.427000,-0.195000,-0.784000,-5.298000,12.214000,-1.115000,29.38
0.364527,0.484000,-0.158000,-0.861000,-1.924000,1.313000,-1.618000,29.42
0.364976,0.475000,-0.184000,-0.871000,-1.740000,-0.763000,-1.145000,29.42
0.365415,0.472000,-0.161000,-0.856000,-2.153000,-1.649000,-1.099000,29.38
0.365836,0.466000,-0.174000,-0.850000,-2.290000,1.649000,-0.901000,29.38
0.366252,0.464000,-0.161000,-0.852000,-2.595000,3.573000,-0.977000,29.33
0.366669,0.470000,-0.165000,-0.859000,-2.809000,4.779000,-1.008000,29.42
0.367086,0.470000,-0.167000,-0.860000,-2.321000,4.015000,-1.069000,29.38
0.367513,0.470000,-0.173000,-0.852000,-2.046000,3.634000,-1.252000,29.47
0.367927,0.471000,-0.166000,-0.854000,-3.008000,4.763000,-1.328000,29.33
0.368347,0.475000,-0.177000,-0.860000,-2.656000,3.267000,-1.237000,29.42
0.368854,0.470000,-0.176000,-0.857000,-2.824000,2.687000,-1.328000,29.38
0.369422,0.480000,-0.171000,-0.864000,-2.580000,2.198000,-1.450000,29.47
0.369933,0.473000,-0.172000,-0.859000,-2.840000,2.412000,-1.221000,29.42
0.370400,0.472000,-0.166000,-0.858000,-2.962000,3.069000,-1.206000,29.42
0.370887,0.474000,-0.164000,-0.859000,-2.779000,3.237000,-1.267000,29.38
0.371352,0.469000,-0.165000,-0.872000,-2.427000,2.901000,-1.237000,29.47
0.371778,0.478000,-0.171000,-0.858000,-2.580000,2.931000,-1.344000,29.28
0.372202,0.473000,-0.172000,-0.866000,-2.519000,3.099000,-1.328000,29.42
0.372625,0.475000,-0.177000,-0.863000,-2.885000,3.084000,-1.618000,29.33
0.373066,0.469000,-0.173000,-0.857000,-3.115000,3.023000,-1.618000,29.38
0.373494,0.540000,-0.196000,-0.876000,-11.084000,15.130000,-7.756000,29.47
0.373914,0.474000,-0.153000,-0.870000,-10.931000,10.748000,-7.084000,29.33
0.374342,0.451000,-0.137000,-0.856000,-5.771000,-1.939000,-5.786000,29.33
0.374776,0.491000,-0.167000,-0.866000,-5.130000,-4.397000,-5.374000,29.47
0.375201,0.457000,-0.158000,-0.858000,-4.305000,-3.466000,-4.321000,29.47
0.375623,0.456000,-0.162000,-0.863000,-3.695000,1.756000,-3.252000,29.42
0.376046,0.462000,-0.155000,-0.863000,-4.107000,5.405000,-2.519000,29.33
0.376461,0.477000,-0.142000,-0.858000,-5.008000,7.130000,-2.260000,29.38
0.376884,0.485000,-0.156000,-0.884000,-4.931000,4.504000,-2.214000,29.38
0.377299,0.472000,-0.148000,-0.872000,-3.634000,3.496000,-2.702000,29.42
0.377726,0.474000,-0.135000,-0.859000,-2.198000,3.176000,-2.137000,29.42
0.378144,0.471000,-0.140000,-0.862000,-1.053000,3.435000,-1.115000,29.38
0.378660,0.470000,-0.149000,-0.867000,-0.763000,3.038000,-0.336000,29.38
0.379208,0.478000,-0.158000,-0.861000,-0.855000,4.046000,0.061000,29.33
0.379716,0.492000,-0.154000,-0.878000,-2.183000,2.718000,-0.443000,29.42
0.380184,0.486000,-0.169000,-0.883000,-1.176000,3.725000,-0.214000,29.47
0.380631,0.469000,-0.139000,-0.855000,0.244000,5.160000,0.977000,29.38
0.381068,0.473000,-0.151000,-0.860000,0.779000,5.664000,1.695000,29.42
0.381478,0.478000,-0.156000,-0.858000,1.160000,5.267000,2.397000,29.42
0.381899,0.469000,-0.169000,-0.860000,1.252000,4.443000,2.519000,29.47
0.382313,0.487000,-0.157000,-0.864000,1.145000,4.092000,2.763000,29.38
0.382739,0.482000,-0.170000,-0.864000,0.947000,4.183000,2.290000,29.42
0.383147,0.483000,-0.169000,-0.860000,0.305000,3.481000,1.786000,29.42
0.383569,0.485000,-0.167000,-0.864000,-0.153000,1.588000,0.977000,29.38
0.383990,0.478000,-0.176000,-0.857000,-1.481000,0.244000,-0.305000,29.38
0.384418,0.403000,-0.128000,-0.756000,-0.122000,13.374000,0.260000,29.47
0.384855,0.450000,-0.156000,-0.840000,-2.275000,3.893000,-1.038000,29.33
0.385276,0.485000,-0.155000,-0.870000,-1.252000,3.282000,-0.412000,29.42
0.385705,0.474000,-0.167000,-0.862000,-1.328000,2.061000,-0.168000,29.38
0.386130,0.475000,-0.162000,-0.860000,-1.389000,1.344000,-0.275000,29.38
0.386546,0.475000,-0.166000,-0.859000,-1.038000,1.649000,-0.153000,29.42
0.386969,0.475000,-0.157000,-0.866000,-1.282000,2.473000,-0.244000,29.47
0.387401,0.473000,-0.163000,-0.865000,-1.435000,3.496000,-0.153000,29.38
0.387817,0.470000,-0.165000,-0.858000,-1.252000,3.420000,-0.427000,29.47
0.388253,0.468000,-0.158000,-0.862000,-1.206000,3.130000,-0.244000,29.33
0.388785,0.478000,-0.163000,-0.862000,-1.328000,2.702000,-0.290000,29.33
0.389219,0.468000,-0.166000,-0.860000,-1.130000,2.519000,-0.137000,29.38
0.389654,0.468000,-0.161000,-0.869000,-1.084000,2.534000,0.015000,29.38
0.390081,0.468000,-0.166000,-0.868000,-1.069000,2.840000,-0.137000,29.42
0.390496,0.474000,-0.169000,-0.866000,-1.038000,3.237000,0.092000,29.33
0.390922,0.481000,-0.165000,-0.866000,-1.053000,3.344000,-0.122000,29.47
0.391339,0.472000,-0.169000,-0.855000,-0.840000,3.634000,-0.122000,29.47
0.391756,0.471000,-0.162000,-0.865000,-1.084000,3.496000,-0.229000,29.52
0.392175,0.476000,-0.165000,-0.858000,-1.008000,3.359000,-0.122000,29.42
0.392588,0.473000,-0.171000,-0.861000,-1.069000,3.313000,0.046000,29.47
0.393006,0.479000,-0.169000,-0.857000,-0.931000,3.298000,-0.214000,29.42
0.393425,0.477000,-0.165000,-0.863000,-0.779000,3.267000,-0.107000,29.42
0.393837,0.479000,-0.164000,-0.863000,-0.840000,3.282000,-0.153000,29.38
0.394257,0.473000,-0.162000,-0.861000,-1.084000,3.267000,0.031000,29.38
0.394682,0.478000,-0.168000,-0.855000,-1.130000,3.038000,-0.107000,29.42
0.395103,0.475000,-0.161000,-0.863000,-0.901000,2.992000,-0.031000,29.33
0.395519,0.473000,-0.171000,-0.862000,-1.298000,3.420000,-0.107000,29.28
0.396004,0.474000,-0.162000,-0.856000,-1.252000,3.298000,-0.229000,29.38
0.396456,0.471000,-0.171000,-0.866000,-1.221000,3.145000,-0.382000,29.28
0.396898,0.475000,-0.163000,-0.857000,-1.206000,2.977000,-0.351000,29.42
0.397310,0.464000,-0.168000,-0.850000,-1.038000,3.023000,-0.382000,29.42
0.397773,0.479000,-0.174000,-0.853000,-1.191000,2.748000,-0.382000,29.38
0.398192,0.471000,-0.170000,-0.853000,-1.328000,2.870000,-0.641000,29.47
0.398702,0.476000,-0.168000,-0.855000,-1.420000,2.931000,-0.794000,29.42
0.399275,0.473000,-0.174000,-0.859000,-1.710000,3.053000,-0.824000,29.42
0.399777,0.473000,-0.166000,-0.854000,-1.771000,2.794000,-0.962000,29.38
0.400250,0.474000,-0.163000,-0.861000,-1.954000,3.053000,-1.053000,29.38
0.400718,0.473000,-0.169000,-0.863000,-1.847000,2.992000,-1.115000,29.42
0.401161,0.474000,-0.165000,-0.864000,-1.802000,3.069000,-1.023000,29.38
0.401575,0.479000,-0.171000,-0.854000,-2.031000,2.962000,-1.038000,29.47
0.401995,0.472000,-0.171000,-0.858000,-2.076000,3.069000,-1.160000,29.38
0.402407,0.467000,-0.167000,-0.856000,-2.107000,2.992000,-1.282000,29.42
0.402826,0.477000,-0.166000,-0.864000,-2.000000,2.885000,-1.084000,29.42
0.403251,0.466000,-0.166000,-0.863000,-1.985000,2.901000,-1.191000,29.38
0.403672,0.473000,-0.166000,-0.860000,-2.076000,3.084000,-1.267000,29.28
0.404097,0.376000,-0.177000,-0.612000,-7.893000,47.420000,0.000000,29.33
0.404509,0.501000,-0.164000,-0.864000,-2.366000,8.947000,-1.527000,29.33
0.404944,0.491000,-0.159000,-0.862000,0.412000,-5.069000,-1.466000,29.38
0.405441,0.447000,-0.157000,-0.868000,0.931000,-7.130000,-1.847000,29.38
0.405905,0.431000,-0.112000,-0.969000,-0.809000,-10.137000,-1.221000,29.52
0.406340,0.365000,-0.112000,-1.391000,19.145000,-23.191000,-3.267000,29.42
0.406761,0.648000,-0.131000,-0.687000,3.771000,5.145000,-1.588000,29.38
0.407201,0.474000,-0.163000,-0.786000,-4.168000,19.450000,-1.771000,29.38
0.407635,0.470000,-0.123000,-0.868000,25.908000,-34.931000,-7.740000,29.42
0.408071,0.489000,-0.185000,-0.894000,36.840000,-24.214000,-11.618000,29.38
0.408488,0.518000,-0.167000,-0.902000,7.435000,-1.908000,-1.603000,29.38
0.409022,0.475000,-0.186000,-0.854000,10.183000,-23.863000,-0.275000,29.38
0.409438,0.478000,-0.169000,-0.861000,4.351000,-22.962000,3.374000,29.42
0.409873,0.460000,-0.178000,-0.885000,5.588000,-24.901000,3.725000,29.33
0.410296,0.442000,-0.171000,-0.875000,0.534000,-5.130000,3.817000,29.38
0.410706,0.461000,-0.177000,-0.845000,-3.847000,11.710000,9.695000,29.47
0.411206,0.407000,-0.160000,-0.898000,2.489000,31.908000,3.573000,29.42
0.411642,0.514000,-0.167000,-0.860000,17.802000,-11.267000,5.756000,29.52
0.412063,0.518000,-0.157000,-0.850000,37.847000,-65.939000,11.481000,29.47
0.412486,0.514000,-0.182000,-0.838000,61.221000,-127.817000,24.733000,29.38
0.412935,0.436000,-0.225000,-0.920000,70.656000,-183.939000,38.977000,29.42
0.413525,0.521000,-0.255000,-0.915000,85.908000,-260.550000,75.389000,29.42
0.414143,0.310000,-0.261000,-0.951000,93.634000,-332.534000,116.489000,29.47
0.414611,0.187000,-0.259000,-0.878000,54.336000,-294.931000,109.664000,29.47
0.415117,0.060000,-0.259000,-0.864000,23.603000,-224.656000,60.092000,29.33
0.415570,0.137000,-0.273000,-0.856000,14.779000,-143.527000,45.847000,29.38
0.415993,0.073000,-0.289000,-0.886000,1.389000,-59.160000,37.145000,29.47
0.416411,0.083000,-0.297000,-0.920000,-13.038000,5.374000,30.275000,29.42
0.416830,0.122000,-0.291000,-0.941000,-16.198000,33.008000,21.954000,29.33
0.417265,0.124000,-0.277000,-0.948000,-17.359000,41.145000,15.328000,29.38
0.417689,0.133000,-0.271000,-0.962000,-20.168000,40.183000,9.725000,29.38
0.418117,0.152000,-0.265000,-0.977000,-13.893000,36.992000,2.183000,29.42
0.418535,0.138000,-0.296000,-0.958000,-11.023000,46.824000,0.550000,29.42
0.418968,0.176000,-0.416000,-0.924000,-25.557000,86.397000,13.038000,29.38
0.419397,0.163000,-0.338000,-0.898000,-26.153000,137.756000,14.519000,29.38
0.419851,0.186000,-0.289000,-0.914000,-49.557000,127.725000,26.168000,29.33
0.420283,0.188000,-0.140000,-0.948000,-56.015000,153.389000,18.595000,29.28
0.420718,0.194000,-0.426000,-0.625000,-56.382000,478.519000,-58.489000,29.38
0.421171,0.114000,0.105000,-1.073000,-60.137000,321.206000,-123.237000,29.38
0.421626,0.753000,-0.077000,-0.957000,-27.878000,78.656000,-19.939000,29.42
0.422059,0.385000,-0.250000,-0.783000,-10.305000,47.313000,-10.855000,29.42
0.422508,0.430000,-0.256000,-0.910000,0.366000,0.214000,-4.427000,29.38
0.422921,0.389000,-0.237000,-0.857000,-1.115000,2.901000,-3.481000,29.47
0.423430,0.406000,-0.231000,-0.874000,-3.878000,6.992000,-3.038000,29.42
0.424001,0.400000,-0.227000,-0.884000,-7.115000,14.366000,-3.206000,29.42
0.424484,0.413000,-0.227000,-0.874000,-6.000000,10.336000,-2.687000,29.38
0.424988,0.410000,-0.228000,-0.880000,-3.252000,2.763000,-2.473000,29.47
0.425422,0.403000,-0.228000,-0.872000,-3.130000,3.282000,-2.321000,29.42
0.425838,0.410000,-0.222000,-0.875000,-4.015000,6.962000,-2.061000,29.42
0.426254,0.408000,-0.219000,-0.885000,-4.962000,11.023000,-2.260000,29.28
0.426659,0.412000,-0.214000,-0.885000,-3.908000,7.374000,-2.061000,29.38
0.427076,0.413000,-0.220000,-0.874000,-3.023000,3.496000,-2.046000,29.42
0.427491,0.411000,-0.218000,-0.883000,-2.641000,2.092000,-1.527000,29.38
0.427905,0.421000,-0.222000,-0.875000,-2.840000,3.725000,-1.267000,29.47
0.428318,0.406000,-0.213000,-0.887000,-2.748000,4.504000,-1.115000,29.38
0.428728,0.417000,-0.223000,-0.881000,-2.840000,5.176000,-1.298000,29.42
0.429148,0.415000,-0.223000,-0.878000,-2.504000,4.641000,-1.496000,29.42
0.429563,0.414000,-0.224000,-0.876000,-2.595000,4.672000,-1.176000,29.38
0.429993,0.411000,-0.220000,-0.878000,-2.473000,4.229000,-1.221000,29.42
0.430502,0.414000,-0.219000,-0.878000,-2.458000,3.756000,-1.298000,29.42
0.430920,0.409000,-0.222000,-0.874000,-2.473000,3.160000,-1.267000,29.38
0.431352,0.412000,-0.222000,-0.872000,-3.008000,3.466000,-1.496000,29.38
0.431761,0.415000,-0.222000,-0.880000,-2.947000,3.908000,-1.405000,29.33
0.432186,0.420000,-0.216000,-0.878000,-2.763000,4.046000,-1.359000,29.38
0.432606,0.411000,-0.216000,-0.877000,-2.382000,4.046000,-1.191000,29.28
0.433018,0.419000,-0.220000,-0.880000,-2.198000,3.618000,-1.099000,29.38
0.433571,0.415000,-0.216000,-0.877000,-2.137000,3.542000,-1.084000,29.42
0.434095,0.413000,-0.217000,-0.878000,-2.076000,3.527000,-1.023000,29.42
0.434546,0.411000,-0.220000,-0.876000,-1.985000,3.481000,-0.916000,29.38
0.435048,0.419000,-0.216000,-0.880000,-2.092000,3.466000,-0.809000,29.38
0.435517,0.423000,-0.218000,-0.872000,-1.847000,3.344000,-0.748000,29.33
0.435954,0.409000,-0.217000,-0.871000,-1.542000,3.557000,-0.763000,29.33
0.436394,0.414000,-0.229000,-0.881000,-1.740000,3.420000,-0.718000,29.38
0.436833,0.417000,-0.224000,-0.884000,-1.588000,3.282000,-0.702000,29.47
0.437290,0.414000,-0.228000,-0.881000,-1.679000,3.038000,-0.641000,29.33
0.437781,0.419000,-0.214000,-0.882000,-1.679000,2.916000,-0.656000,29.33
0.438320,0.418000,-0.223000,-0.876000,-1.496000,2.916000,-0.504000,29.38
0.438774,0.408000,-0.216000,-0.878000,-1.618000,2.962000,-0.427000,29.47
0.439190,0.414000,-0.218000,-0.879000,-1.679000,3.038000,-0.687000,29.42
0.439601,0.423000,-0.224000,-0.873000,-1.496000,2.901000,-0.641000,29.47
0.440040,0.410000,-0.219000,-0.876000,-1.481000,3.191000,-0.641000,29.38
0.440462,0.417000,-0.220000,-0.881000,-1.710000,2.885000,-0.626000,29.47
0.440889,0.414000,-0.219000,-0.875000,-1.710000,3.038000,-0.565000,29.52
0.441299,0.407000,-0.215000,-0.882000,-1.756000,3.359000,-0.809000,29.42
0.441713,0.418000,-0.220000,-0.884000,-1.618000,3.374000,-0.855000,29.38
0.442131,0.416000,-0.216000,-0.876000,-1.359000,3.527000,-0.595000,29.38
0.442542,0.421000,-0.219000,-0.874000,-1.511000,3.405000,-0.702000,29.33
0.442952,0.411000,-0.221000,-0.867000,-1.527000,3.298000,-0.595000,29.42
0.443464,0.417000,-0.223000,-0.867000,-1.725000,3.466000,-0.626000,29.38
0.444009,0.417000,-0.217000,-0.876000,-2.076000,3.466000,-0.718000,29.38
0.444461,0.420000,-0.219000,-0.892000,-1.863000,3.069000,-0.809000,29.42
0.444943,0.409000,-0.221000,-0.875000,-1.603000,3.450000,-0.718000,29.42
0.445404,0.411000,-0.225000,-0.873000,-2.031000,3.664000,-0.931000,29.38
0.445860,0.409000,-0.229000,-0.875000,-2.656000,3.847000,-1.130000,29.38
0.446326,0.421000,-0.222000,-0.878000,-2.962000,4.351000,-1.282000,29.33
0.446823,0.418000,-0.227000,-0.873000,-3.191000,4.275000,-1.603000,29.47
0.447271,0.420000,-0.218000,-0.865000,-2.885000,4.046000,-1.405000,29.47
0.447714,0.415000,-0.225000,-0.876000,-2.855000,4.122000,-1.374000,29.38
0.448131,0.419000,-0.223000,-0.876000,-3.237000,3.573000,-1.740000,29.52
0.448541,0.419000,-0.218000,-0.878000,-3.527000,3.160000,-1.817000,29.38
0.448960,0.426000,-0.221000,-0.875000,-3.802000,2.901000,-1.786000,29.47
0.449372,0.425000,-0.218000,-0.868000,-3.924000,2.443000,-1.542000,29.42
0.449810,0.423000,-0.210000,-0.881000,-3.802000,2.504000,-1.466000,29.42
0.450229,0.423000,-0.219000,-0.885000,-3.405000,2.595000,-0.992000,29.38
0.450648,0.420000,-0.212000,-0.874000,-2.947000,2.595000,-0.763000,29.38
0.451062,0.410000,-0.217000,-0.879000,-2.763000,2.779000,-0.947000,29.33
0.451481,0.411000,-0.220000,-0.892000,-2.840000,3.313000,-0.840000,29.42
0.451900,0.417000,-0.212000,-0.888000,-3.130000,3.481000,-0.977000,29.38
0.452316,0.419000,-0.217000,-0.872000,-3.069000,3.466000,-1.221000,29.38
0.452727,0.416000,-0.220000,-0.878000,-2.931000,3.634000,-0.992000,29.42
0.453141,0.414000,-0.212000,-0.876000,-2.977000,3.588000,-1.115000,29.42
0.453746,0.405000,-0.209000,-0.880000,-2.748000,3.679000,-1.267000,29.47
0.454238,0.415000,-0.217000,-0.876000,-3.176000,3.954000,-1.374000,29.38
0.454770,0.421000,-0.213000,-0.875000,-3.023000,3.725000,-1.389000,29.42
0.455230,0.421000,-0.216000,-0.882000,-2.916000,3.313000,-1.221000,29.42
0.455670,0.412000,-0.218000,-0.871000,-3.115000,3.237000,-1.282000,29.47
0.456094,0.414000,-0.214000,-0.883000,-3.359000,2.931000,-1.511000,29.38
0.456514,0.415000,-0.220000,-0.877000,-3.786000,3.038000,-1.725000,29.33
0.456952,0.429000,-0.218000,-0.871000,-3.908000,3.206000,-1.786000,29.42
0.457382,0.422000,-0.218000,-0.875000,-3.985000,3.176000,-1.786000,29.42
0.457808,0.418000,-0.213000,-0.883000,-3.832000,3.053000,-1.832000,29.38
0.458237,0.413000,-0.209000,-0.880000,-4.244000,3.176000,-1.832000,29.47
0.458676,0.418000,-0.215000,-0.873000,-4.214000,3.176000,-1.924000,29.33
0.459102,0.413000,-0.210000,-0.889000,-4.168000,3.450000,-1.954000,29.33
0.459517,0.422000,-0.200000,-0.888000,-3.664000,2.962000,-1.389000,29.47
0.459944,0.424000,-0.205000,-0.881000,-3.282000,2.885000,-1.466000,29.38
0.460374,0.424000,-0.213000,-0.893000,-2.947000,2.779000,-1.374000,29.42
0.460799,0.420000,-0.202000,-0.878000,-2.901000,2.916000,-0.977000,29.38
0.461237,0.421000,-0.205000,-0.883000,-2.427000,2.916000,-0.779000,29.38
0.461658,0.420000,-0.206000,-0.877000,-2.168000,2.962000,-0.534000,29.47
0.462083,0.420000,-0.204000,-0.889000,-1.695000,2.885000,-0.351000,29.33
0.462494,0.418000,-0.207000,-0.878000,-1.374000,3.160000,-0.336000,29.33
0.462928,0.410000,-0.203000,-0.874000,-1.160000,3.115000,-0.351000,29.38
0.463367,0.417000,-0.210000,-0.884000,-1.069000,3.389000,-0.351000,29.38
0.463808,0.419000,-0.209000,-0.878000,-1.008000,3.603000,-0.122000,29.42
0.464221,0.417000,-0.208000,-0.885000,-0.489000,3.802000,-0.046000,29.42
0.464746,0.427000,-0.206000,-0.888000,-0.137000,3.939000,0.076000,29.38
0.465356,0.419000,-0.203000,-0.882000,0.153000,3.985000,0.122000,29.47
0.465788,0.419000,-0.204000,-0.882000,0.244000,4.305000,0.275000,29.33
0.466210,0.421000,-0.213000,-0.881000,0.534000,4.458000,0.321000,29.42
0.466613,0.420000,-0.204000,-0.883000,0.595000,4.183000,0.443000,29.38
0.467016,0.417000,-0.214000,-0.872000,0.122000,4.046000,0.046000,29.38
0.467450,0.422000,-0.214000,-0.883000,-0.229000,3.618000,0.137000,29.33
0.467862,0.407000,-0.218000,-0.879000,-0.275000,3.206000,-0.168000,29.47
0.468280,0.420000,-0.221000,-0.873000,-0.519000,2.840000,-0.168000,29.38
0.468691,0.424000,-0.216000,-0.876000,-0.061000,2.351000,-0.382000,29.38
0.469115,0.423000,-0.215000,-0.872000,-0.504000,2.702000,-0.321000,29.42
0.469528,0.410000,-0.204000,-0.880000,-0.656000,2.962000,-0.244000,29.33
0.469948,0.423000,-0.221000,-0.887000,-0.855000,2.779000,-0.641000,29.38
0.470383,0.420000,-0.209000,-0.877000,-0.672000,2.718000,-0.626000,29.38
0.470808,0.428000,-0.220000,-0.882000,-0.672000,3.069000,-0.641000,29.33
0.471251,0.419000,-0.218000,-0.875000,-0.702000,3.450000,-0.626000,29.42
0.471687,0.422000,-0.208000,-0.879000,-0.565000,3.405000,-0.260000,29.38
0.472162,0.425000,-0.210000,-0.885000,-0.626000,3.237000,-0.504000,29.47
0.472594,0.421000,-0.205000,-0.885000,-0.305000,2.962000,-0.336000,29.42
0.473023,0.426000,-0.209000,-0.876000,-0.290000,3.405000,-0.198000,29.33
0.473460,0.419000,-0.212000,-0.870000,-0.122000,2.977000,-0.321000,29.38
0.473896,0.425000,-0.213000,-0.883000,-0.229000,3.145000,-0.198000,29.47
0.474411,0.421000,-0.216000,-0.873000,0.031000,2.870000,-0.183000,29.42
0.474966,0.422000,-0.217000,-0.867000,-0.198000,3.298000,-0.244000,29.38
0.475413,0.415000,-0.222000,-0.881000,-0.336000,3.221000,-0.153000,29.38
0.475886,0.416000,-0.221000,-0.871000,-0.458000,3.374000,-0.321000,29.38
0.476340,0.415000,-0.228000,-0.869000,-0.901000,3.328000,-0.840000,29.42
0.476779,0.426000,-0.214000,-0.876000,-1.282000,3.511000,-0.763000,29.38
0.477212,0.424000,-0.223000,-0.877000,-1.115000,3.466000,-0.809000,29.47
0.477647,0.425000,-0.220000,-0.881000,-0.885000,3.389000,-0.550000,29.42
0.478073,0.426000,-0.213000,-0.877000,-0.641000,3.176000,-0.519000,29.42
0.478501,0.426000,-0.217000,-0.878000,-0.550000,3.206000,-0.412000,29.42
0.478932,0.421000,-0.218000,-0.878000,-0.443000,3.328000,-0.244000,29.38
0.479360,0.420000,-0.218000,-0.875000,-0.626000,3.237000,-0.458000,29.33
0.479799,0.425000,-0.220000,-0.872000,-0.382000,3.740000,-0.336000,29.33
0.480240,0.424000,-0.218000,-0.878000,-0.656000,3.588000,-0.412000,29.38
0.480734,0.421000,-0.218000,-0.877000,-0.489000,3.740000,-0.519000,29.38
0.481275,0.421000,-0.226000,-0.874000,-0.672000,3.802000,-0.427000,29.33
0.481719,0.418000,-0.226000,-0.875000,-0.763000,3.908000,-0.565000,29.33
0.482209,0.427000,-0.222000,-0.869000,-1.359000,3.847000,-0.397000,29.28
0.482686,0.421000,-0.225000,-0.878000,-1.756000,3.817000,-0.458000,29.47
0.483120,0.418000,-0.236000,-0.885000,-1.313000,4.031000,-0.626000,29.33
0.483535,0.418000,-0.231000,-0.886000,-1.863000,4.275000,-0.763000,29.42
0.483968,0.412000,-0.246000,-0.876000,-2.840000,4.534000,-1.038000,29.28
0.484432,0.425000,-0.264000,-0.877000,-3.679000,5.481000,-1.695000,29.47
0.484945,0.457000,-0.288000,-0.904000,-6.031000,8.137000,-2.565000,29.33
0.485389,0.486000,-0.319000,-0.919000,-6.595000,10.076000,-3.115000,29.33
0.485857,0.527000,-0.322000,-0.941000,-6.183000,11.267000,-2.748000,29.47
0.486308,0.541000,-0.271000,-0.917000,0.061000,13.115000,-0.565000,29.38
0.486734,0.503000,-0.201000,-0.909000,4.198000,7.786000,0.275000,29.42
0.487169,0.476000,-0.165000,-0.893000,9.191000,9.740000,1.496000,29.42
0.487586,0.412000,-0.135000,-0.911000,8.824000,5.176000,0.916000,29.47
0.488021,0.353000,-0.192000,-0.879000,6.382000,4.992000,-2.794000,29.38
0.488492,0.346000,-0.183000,-0.824000,2.244000,6.290000,-8.122000,29.42
0.488948,0.385000,-0.242000,-0.838000,-5.160000,3.710000,-15.420000,29.33
0.489379,0.431000,-0.262000,-0.814000,-8.290000,5.099000,-16.840000,29.38
0.489819,0.407000,-0.221000,-0.746000,-10.168000,6.595000,-15.649000,29.38
0.490263,0.412000,-0.173000,-0.721000,-5.603000,10.198000,-13.588000,29.33
0.490697,0.426000,-0.175000,-0.700000,3.527000,15.374000,-10.489000,29.24
0.491133,0.509000,-0.100000,-0.689000,16.855000,20.687000,-9.237000,29.38
0.491560,0.552000,-0.357000,-0.422000,80.992000,31.756000,-11.527000,29.38
0.491980,0.793000,-0.978000,-1.237000,0.015000,10.244000,-31.450000,29.33
0.492423,0.560000,0.119000,-1.107000,-14.198000,-11.206000,-15.725000,29.42
0.492852,0.271000,0.237000,-0.605000,34.168000,15.496000,-25.435000,29.38
0.493280,0.522000,-0.330000,-1.094000,20.565000,-14.947000,-34.687000,29.38
0.493714,0.530000,-0.194000,-1.147000,16.977000,-26.046000,-31.435000,29.24
0.494142,0.413000,-0.052000,-0.780000,28.641000,-22.229000,-30.824000,29.28
0.494686,0.496000,-0.332000,-0.779000,23.573000,-25.267000,-30.840000,29.47
0.495264,0.504000,-0.304000,-0.774000,17.878000,-20.916000,-27.817000,29.38
0.495791,0.451000,-0.312000,-0.693000,15.450000,-16.611000,-23.099000,29.42
0.496278,0.373000,-0.293000,-0.708000,9.771000,-13.450000,-18.366000,29.42
0.496736,0.145000,-0.283000,-0.771000,-0.901000,-10.794000,-16.809000,29.38
0.497201,-0.049000,-0.307000,-1.053000,-11.710000,-4.718000,-11.756000,29.47
0.497693,-0.010000,-0.046000,-1.104000,-12.687000,9.344000,-6.672000,29.33
0.498130,0.186000,0.134000,-0.804000,-8.427000,13.908000,-13.038000,29.42
0.498581,0.572000,-0.137000,-0.977000,-10.244000,7.878000,-15.893000,29.47
0.499012,0.637000,-0.203000,-0.886000,-6.702000,-3.115000,-12.229000,29.38
0.499431,0.474000,-0.176000,-0.825000,-5.115000,-4.092000,-8.794000,29.42
0.499855,0.501000,-0.240000,-0.961000,-1.435000,-4.000000,-5.511000,29.42
0.500270,0.393000,-0.239000,-0.860000,1.573000,2.931000,-4.366000,29.47
0.500712,0.473000,-0.301000,-0.875000,4.611000,7.863000,-3.786000,29.38
0.501142,0.504000,-0.308000,-0.863000,7.893000,10.916000,-1.420000,29.42
0.501548,0.496000,-0.274000,-0.895000,10.565000,8.061000,1.313000,29.47
0.501970,0.417000,-0.244000,-0.895000,12.290000,8.107000,1.878000,29.38
0.502384,0.425000,-0.247000,-0.872000,11.695000,8.656000,1.038000,29.38
0.502798,0.456000,-0.241000,-0.888000,11.282000,11.069000,0.885000,29.33
0.503214,0.469000,-0.220000,-0.882000,11.359000,9.481000,1.954000,29.33
0.503623,0.456000,-0.216000,-0.883000,12.504000,8.107000,3.405000,29.38
0.504035,0.440000,-0.218000,-0.864000,13.985000,6.947000,4.214000,29.38
0.504512,0.424000,-0.214000,-0.869000,14.611000,7.466000,4.733000,29.42
0.504987,0.415000,-0.230000,-0.862000,15.359000,8.443000,4.702000,29.42
0.505441,0.437000,-0.251000,-0.860000,13.817000,8.702000,4.351000,29.38
0.505882,0.441000,-0.284000,-0.849000,11.191000,8.198000,3.847000,29.28
0.506316,0.454000,-0.287000,-0.850000,8.443000,7.328000,3.038000,29.33
0.506721,0.443000,-0.307000,-0.827000,5.939000,6.855000,1.466000,29.42
0.507144,0.424000,-0.298000,-0.839000,3.634000,6.260000,-0.992000,29.38
0.507566,0.435000,-0.310000,-0.836000,1.389000,5.954000,-3.176000,29.47
0.507988,0.448000,-0.295000,-0.836000,-0.611000,5.252000,-4.794000,29.33
0.508400,0.460000,-0.277000,-0.864000,-0.962000,5.298000,-5.099000,29.47
0.508816,0.471000,-0.269000,-0.867000,-1.099000,5.725000,-4.473000,29.38
0.509227,0.462000,-0.256000,-0.875000,-0.550000,5.374000,-3.282000,29.38
0.509640,0.448000,-0.248000,-0.865000,-0.031000,5.786000,-2.656000,29.42
0.510053,0.460000,-0.249000,-0.867000,0.443000,5.878000,-1.695000,29.33
0.510463,0.453000,-0.253000,-0.874000,0.824000,6.137000,-0.916000,29.38
0.510888,0.458000,-0.252000,-0.864000,1.191000,6.275000,-0.336000,29.38
0.511303,0.454000,-0.266000,-0.860000,0.718000,5.710000,-0.305000,29.42
0.511715,0.460000,-0.280000,-0.853000,0.076000,5.679000,-0.427000,29.33
0.512135,0.465000,-0.272000,-0.852000,-1.176000,5.313000,-0.855000,29.47
0.512577,0.467000,-0.268000,-0.851000,-2.015000,4.550000,-0.855000,29.38
0.513015,0.465000,-0.270000,-0.850000,-2.672000,3.573000,-1.038000,29.33
0.513421,0.458000,-0.268000,-0.846000,-3.649000,2.397000,-1.603000,29.42
0.513833,0.455000,-0.280000,-0.850000,-4.519000,1.740000,-2.031000,29.38
0.514247,0.453000,-0.277000,-0.843000,-5.481000,1.099000,-2.382000,29.38
0.514759,0.444000,-0.271000,-0.849000,-6.000000,0.947000,-3.069000,29.42
0.515356,0.456000,-0.264000,-0.855000,-6.702000,0.305000,-3.267000,29.47
0.515859,0.448000,-0.262000,-0.847000,-6.962000,0.046000,-3.511000,29.47
0.516351,0.444000,-0.258000,-0.853000,-6.947000,-0.046000,-3.649000,29.47
0.516843,0.445000,-0.251000,-0.844000,-7.069000,-0.076000,-3.908000,29.33
0.517311,0.439000,-0.253000,-0.844000,-7.053000,0.366000,-3.863000,29.42
0.517750,0.452000,-0.242000,-0.857000,-6.702000,0.763000,-3.481000,29.38
0.518176,0.452000,-0.248000,-0.857000,-6.473000,1.176000,-3.481000,29.47
0.518602,0.452000,-0.263000,-0.851000,-6.351000,1.557000,-3.588000,29.42
0.519018,0.451000,-0.255000,-0.861000,-6.824000,1.786000,-3.710000,29.33
0.519431,0.452000,-0.258000,-0.854000,-7.115000,1.863000,-3.588000,29.38
0.519846,0.445000,-0.271000,-0.842000,-7.603000,1.802000,-4.031000,29.38
0.520263,0.442000,-0.243000,-0.859000,-8.412000,1.389000,-4.336000,29.33
0.520695,0.455000,-0.236000,-0.858000,-7.634000,1.527000,-4.015000,29.42
0.521113,0.455000,-0.255000,-0.850000,-7.725000,1.344000,-3.939000,29.38
0.521529,0.451000,-0.248000,-0.859000,-8.336000,1.038000,-3.969000,29.38
0.522013,0.451000,-0.263000,-0.866000,-9.099000,0.656000,-4.229000,29.42
0.522456,0.448000,-0.242000,-0.867000,-9.725000,1.221000,-4.473000,29.38
0.522870,0.454000,-0.240000,-0.867000,-9.786000,0.779000,-4.427000,29.38
0.523296,0.456000,-0.258000,-0.847000,-10.336000,0.550000,-4.580000,29.33
0.523718,0.439000,-0.252000,-0.851000,-11.542000,0.031000,-5.176000,29.42
0.524148,0.442000,-0.229000,-0.858000,-11.740000,-0.153000,-5.511000,29.38
0.524649,0.445000,-0.222000,-0.858000,-11.939000,-0.580000,-5.267000,29.47
0.525200,0.440000,-0.213000,-0.866000,-11.267000,0.244000,-5.176000,29.42
0.525648,0.440000,-0.208000,-0.868000,-10.336000,0.931000,-4.992000,29.33
0.526148,0.441000,-0.189000,-0.861000,-9.603000,1.756000,-4.580000,29.47
0.526632,0.427000,-0.192000,-0.856000,-7.389000,2.687000,-4.366000,29.38
0.527077,0.437000,-0.204000,-0.864000,-6.168000,3.985000,-3.924000,29.33
0.527525,0.453000,-0.212000,-0.864000,-5.237000,5.130000,-3.832000,29.38
0.527977,0.451000,-0.216000,-0.869000,-4.534000,5.191000,-3.313000,29.28
0.528416,0.458000,-0.204000,-0.882000,-3.740000,4.748000,-2.901000,29.38
0.528850,0.459000,-0.204000,-0.867000,-2.198000,4.214000,-1.740000,29.33
0.529314,0.458000,-0.207000,-0.868000,-1.435000,3.908000,-1.176000,29.33
0.529813,0.445000,-0.209000,-0.863000,-0.565000,4.244000,-0.702000,29.38
0.530275,0.452000,-0.210000,-0.865000,-0.046000,4.412000,-0.412000,29.38
0.530735,0.448000,-0.222000,-0.867000,0.427000,5.084000,-0.489000,29.33
0.531170,0.445000,-0.216000,-0.863000,0.702000,5.176000,-0.321000,29.38
0.531606,0.443000,-0.228000,-0.858000,0.580000,5.527000,-0.336000,29.38
0.532028,0.446000,-0.219000,-0.857000,0.672000,5.969000,-0.443000,29.33
0.532435,0.443000,-0.220000,-0.854000,1.053000,6.550000,-0.519000,29.38
0.532854,0.448000,-0.216000,-0.861000,1.466000,6.794000,-0.489000,29.47
0.533263,0.443000,-0.232000,-0.855000,1.634000,6.901000,-0.855000,29.38
0.533673,0.441000,-0.222000,-0.860000,1.542000,7.771000,-1.053000,29.52
0.534080,0.451000,-0.232000,-0.850000,1.206000,7.817000,-1.374000,29.33
0.534491,0.449000,-0.235000,-0.849000,0.412000,8.076000,-1.740000,29.38
0.535046,0.455000,-0.237000,-0.848000,-0.351000,7.985000,-2.565000,29.38
0.535604,0.456000,-0.242000,-0.855000,-1.588000,7.817000,-2.916000,29.33
0.536094,0.460000,-0.233000,-0.856000,-2.534000,7.756000,-3.237000,29.42
0.536561,0.463000,-0.226000,-0.854000,-2.366000,7.176000,-3.466000,29.38
0.537004,0.464000,-0.222000,-0.861000,-2.550000,6.794000,-3.435000,29.38
0.537421,0.459000,-0.222000,-0.849000,-2.397000,6.275000,-3.221000,29.42
0.537904,0.458000,-0.227000,-0.850000,-2.382000,6.550000,-3.435000,29.42
0.538351,0.460000,-0.222000,-0.858000,-2.748000,6.061000,-3.405000,29.38
0.538801,0.449000,-0.223000,-0.858000,-2.595000,6.107000,-3.511000,29.38
0.539240,0.462000,-0.229000,-0.845000,-3.008000,6.107000,-3.802000,29.42
0.539694,0.461000,-0.229000,-0.850000,-2.748000,6.763000,-3.969000,29.38
0.540119,0.461000,-0.220000,-0.865000,-2.580000,6.412000,-3.924000,29.38
0.540535,0.455000,-0.230000,-0.854000,-2.534000,6.947000,-4.031000,29.38
0.540967,0.456000,-0.225000,-0.859000,-2.718000,6.901000,-4.366000,29.42
0.541389,0.479000,-0.214000,-0.861000,-2.977000,7.252000,-4.122000,29.33
0.541808,0.467000,-0.219000,-0.851000,-2.244000,6.763000,-3.939000,29.47
0.542238,0.467000,-0.213000,-0.856000,-2.672000,6.183000,-3.588000,29.28
0.542673,0.459000,-0.224000,-0.851000,-2.916000,6.351000,-3.710000,29.42
0.543108,0.467000,-0.223000,-0.855000,-3.496000,6.260000,-3.740000,29.52
0.543518,0.474000,-0.212000,-0.855000,-3.664000,6.321000,-3.786000,29.38
0.543936,0.480000,-0.219000,-0.851000,-3.634000,6.076000,-3.618000,29.38
0.544348,0.479000,-0.216000,-0.856000,-3.496000,5.374000,-3.206000,29.33
0.544886,0.475000,-0.215000,-0.858000,-3.557000,4.763000,-2.992000,29.42
0.545481,0.479000,-0.218000,-0.853000,-3.817000,4.198000,-2.702000,29.38
0.546030,0.474000,-0.208000,-0.845000,-3.832000,3.511000,-2.641000,29.38
0.546545,0.459000,-0.216000,-0.847000,-4.198000,3.588000,-2.641000,29.33
0.546997,0.466000,-0.223000,-0.858000,-4.687000,3.634000,-3.023000,29.33
0.547467,0.469000,-0.221000,-0.854000,-4.763000,3.832000,-3.405000,29.38
0.547877,0.465000,-0.213000,-0.850000,-4.656000,4.107000,-3.084000,29.38
0.548291,0.476000,-0.203000,-0.853000,-4.214000,4.107000,-3.023000,29.42
0.548715,0.469000,-0.209000,-0.855000,-3.832000,3.817000,-2.779000,29.33
0.549135,0.471000,-0.216000,-0.852000,-4.107000,4.000000,-2.595000,29.38
0.549551,0.475000,-0.205000,-0.853000,-3.710000,3.908000,-2.336000,29.28
0.549964,0.471000,-0.209000,-0.860000,-3.695000,3.588000,-2.153000,29.42
0.550382,0.475000,-0.208000,-0.851000,-3.527000,3.679000,-2.153000,29.42
0.550827,0.469000,-0.212000,-0.849000,-3.557000,3.878000,-2.305000,29.47
0.551239,0.474000,-0.211000,-0.855000,-3.573000,3.832000,-2.412000,29.47
0.551649,0.479000,-0.218000,-0.852000,-3.740000,3.908000,-2.198000,29.42
0.552086,0.477000,-0.212000,-0.853000,-3.649000,3.725000,-2.046000,29.42
0.552499,0.472000,-0.205000,-0.845000,-3.557000,3.527000,-2.061000,29.28
0.552905,0.479000,-0.207000,-0.847000,-3.603000,3.649000,-2.000000,29.47
0.553321,0.478000,-0.205000,-0.845000,-3.664000,3.450000,-1.863000,29.42
0.553731,0.469000,-0.210000,-0.842000,-4.137000,3.328000,-2.015000,29.47
0.554148,0.480000,-0.205000,-0.847000,-4.321000,3.176000,-1.985000,29.38
0.554577,0.468000,-0.210000,-0.847000,-4.504000,3.069000,-1.771000,29.38
0.555013,0.475000,-0.209000,-0.852000,-5.023000,2.611000,-1.969000,29.42
0.555452,0.465000,-0.209000,-0.846000,-5.130000,2.290000,-1.969000,29.33
0.555891,0.478000,-0.210000,-0.854000,-5.084000,1.893000,-2.092000,29.47
0.556311,0.472000,-0.206000,-0.855000,-5.511000,1.649000,-2.137000,29.47
0.556720,0.472000,-0.213000,-0.848000,-5.511000,1.710000,-2.137000,29.42
0.557131,0.469000,-0.210000,-0.845000,-5.786000,1.908000,-2.641000,29.42
0.557542,0.465000,-0.204000,-0.846000,-6.214000,2.305000,-2.809000,29.47
0.557950,0.467000,-0.205000,-0.855000,-6.015000,2.672000,-2.931000,29.38
0.558357,0.480000,-0.200000,-0.854000,-5.924000,2.595000,-2.901000,29.33
0.558774,0.463000,-0.196000,-0.851000,-5.756000,2.611000,-2.840000,29.42
0.559188,0.461000,-0.198000,-0.848000,-6.137000,2.489000,-3.069000,29.47
0.559604,0.473000,-0.205000,-0.852000,-7.084000,2.809000,-3.344000,29.47
0.560013,0.467000,-0.203000,-0.852000,-7.725000,2.809000,-3.786000,29.33
0.560437,0.467000,-0.205000,-0.853000,-7.969000,3.099000,-4.137000,29.42
0.560871,0.477000,-0.196000,-0.853000,-7.969000,2.916000,-4.183000,29.38
0.561309,0.476000,-0.190000,-0.853000,-7.618000,2.962000,-3.954000,29.28
0.561739,0.475000,-0.197000,-0.846000,-7.221000,2.763000,-3.679000,29.42
0.562154,0.472000,-0.191000,-0.851000,-7.099000,2.550000,-3.496000,29.42
0.562608,0.480000,-0.185000,-0.856000,-6.412000,2.504000,-3.435000,29.47
0.563062,0.479000,-0.180000,-0.863000,-6.015000,2.473000,-3.053000,29.47
0.563478,0.474000,-0.179000,-0.855000,-5.145000,2.611000,-2.687000,29.42
0.563893,0.471000,-0.186000,-0.852000,-4.595000,2.565000,-2.458000,29.33
0.564304,0.472000,-0.191000,-0.860000,-4.687000,2.885000,-2.519000,29.38
0.564717,0.473000,-0.194000,-0.857000,-4.687000,2.870000,-2.519000,29.38
0.565137,0.468000,-0.187000,-0.856000,-4.687000,3.069000,-2.595000,29.33
0.565550,0.471000,-0.193000,-0.856000,-4.779000,3.328000,-2.855000,29.42
0.565984,0.469000,-0.196000,-0.861000,-4.885000,3.344000,-3.084000,29.28
0.566423,0.468000,-0.192000,-0.857000,-5.313000,3.145000,-3.496000,29.38
0.566954,0.475000,-0.181000,-0.853000,-5.466000,3.450000,-3.603000,29.42
0.567542,0.481000,-0.187000,-0.857000,-5.893000,3.237000,-3.466000,29.38
0.567975,0.467000,-0.187000,-0.861000,-6.107000,3.313000,-3.618000,29.47
0.568388,0.470000,-0.192000,-0.861000,-6.275000,3.359000,-3.649000,29.47
0.568800,0.471000,-0.173000,-0.855000,-5.924000,3.756000,-3.634000,29.42
0.569206,0.473000,-0.183000,-0.854000,-5.802000,4.305000,-3.557000,29.33
0.569626,0.479000,-0.177000,-0.854000,-5.649000,4.611000,-3.679000,29.38
0.570037,0.475000,-0.178000,-0.856000,-5.252000,5.221000,-3.573000,29.38
0.570460,0.482000,-0.172000,-0.867000,-4.443000,5.069000,-3.374000,29.33
0.570885,0.482000,-0.176000,-0.851000,-4.153000,5.267000,-2.870000,29.33
0.571333,0.475000,-0.190000,-0.853000,-3.802000,5.450000,-2.687000,29.57
0.571793,0.477000,-0.163000,-0.857000,-3.450000,5.389000,-2.595000,29.47
0.572235,0.482000,-0.178000,-0.853000,-3.328000,4.794000,-2.427000,29.33
0.572647,0.471000,-0.174000,-0.855000,-2.962000,4.611000,-2.550000,29.42
0.573064,0.488000,-0.179000,-0.859000,-3.221000,4.718000,-2.595000,29.47
0.573483,0.486000,-0.179000,-0.857000,-3.084000,4.611000,-2.565000,29.38
0.573904,0.478000,-0.167000,-0.851000,-2.733000,4.260000,-2.290000,29.42
0.574333,0.481000,-0.168000,-0.860000,-2.244000,4.015000,-2.198000,29.38
0.574742,0.482000,-0.169000,-0.864000,-2.061000,3.893000,-1.649000,29.38
0.575157,0.484000,-0.161000,-0.857000,-1.634000,3.679000,-1.450000,29.38
0.575572,0.482000,-0.167000,-0.854000,-1.145000,3.817000,-1.084000,29.33
0.576004,0.478000,-0.167000,-0.858000,-0.992000,3.420000,-0.885000,29.42
0.576429,0.480000,-0.175000,-0.861000,-0.916000,3.374000,-0.779000,29.47
0.576916,0.482000,-0.177000,-0.856000,-0.779000,3.115000,-0.687000,29.38
0.577583,0.487000,-0.178000,-0.856000,-0.977000,2.977000,-0.519000,29.42
0.578036,0.485000,-0.175000,-0.854000,-0.855000,3.038000,-0.443000,29.42
0.578471,0.483000,-0.172000,-0.856000,-0.458000,2.473000,-0.473000,29.38
0.578945,0.481000,-0.177000,-0.855000,-0.611000,1.985000,-0.412000,29.28
0.579473,0.477000,-0.174000,-0.854000,-0.290000,1.832000,-0.107000,29.33
0.579914,0.477000,-0.175000,-0.853000,-0.412000,1.893000,-0.076000,29.42
0.580325,0.473000,-0.182000,-0.868000,-0.290000,2.260000,-0.260000,29.38
0.580753,0.475000,-0.177000,-0.860000,-0.687000,2.733000,-0.458000,29.28
0.581169,0.479000,-0.175000,-0.859000,-0.977000,3.023000,-0.534000,29.33
0.581583,0.475000,-0.184000,-0.865000,-1.084000,3.359000,-0.550000,29.38
0.581997,0.474000,-0.173000,-0.854000,-1.160000,3.221000,-0.855000,29.38
0.582408,0.482000,-0.167000,-0.863000,-1.450000,3.267000,-0.641000,29.47
0.582821,0.481000,-0.174000,-0.857000,-1.481000,2.992000,-0.611000,29.52
0.583250,0.484000,-0.178000,-0.850000,-1.573000,2.824000,-0.656000,29.42
0.583669,0.481000,-0.173000,-0.845000,-1.557000,2.916000,-0.550000,29.38
0.584077,0.478000,-0.180000,-0.848000,-1.649000,2.962000,-0.580000,29.38
0.584491,0.481000,-0.176000,-0.855000,-1.374000,3.069000,-0.702000,29.33
0.584910,0.479000,-0.179000,-0.851000,-1.084000,3.023000,-0.489000,29.42
0.585322,0.480000,-0.174000,-0.851000,-1.038000,2.992000,-0.473000,29.38
0.585753,0.482000,-0.182000,-0.851000,-0.824000,2.870000,-0.198000,29.38
0.586179,0.481000,-0.176000,-0.855000,-0.794000,2.427000,-0.351000,29.33
0.586597,0.489000,-0.174000,-0.857000,-0.855000,2.305000,-0.336000,29.42
0.587128,0.484000,-0.180000,-0.860000,-0.656000,2.489000,-0.260000,29.38
0.587768,0.481000,-0.186000,-0.863000,-0.656000,1.832000,-0.168000,29.38
0.588196,0.477000,-0.183000,-0.855000,-0.473000,1.863000,-0.122000,29.33
0.588611,0.478000,-0.180000,-0.855000,-0.718000,1.725000,-0.076000,29.28
0.589027,0.475000,-0.183000,-0.856000,-0.779000,1.786000,-0.290000,29.47
0.589434,0.477000,-0.183000,-0.863000,-1.023000,1.878000,-0.153000,29.28
0.589852,0.480000,-0.188000,-0.864000,-1.069000,1.924000,-0.382000,29.42
0.590266,0.485000,-0.186000,-0.855000,-1.130000,1.908000,-0.412000,29.42
0.590693,0.481000,-0.178000,-0.858000,-0.885000,2.031000,-0.382000,29.47
0.591106,0.473000,-0.176000,-0.851000,-0.809000,2.198000,-0.397000,29.38
0.591520,0.481000,-0.178000,-0.857000,-0.809000,2.275000,-0.336000,29.42
0.591949,0.476000,-0.178000,-0.849000,-0.779000,2.458000,-0.260000,29.42
0.592374,0.480000,-0.179000,-0.852000,-0.748000,2.336000,-0.412000,29.47
0.592784,0.477000,-0.180000,-0.857000,-0.763000,2.214000,-0.366000,29.38
0.593206,0.473000,-0.183000,-0.861000,-0.672000,2.366000,-0.321000,29.42
0.593620,0.477000,-0.186000,-0.847000,-0.748000,2.397000,-0.321000,29.42
0.594046,0.480000,-0.183000,-0.853000,-1.008000,2.153000,-0.290000,29.38
0.594464,0.485000,-0.183000,-0.856000,-1.023000,1.969000,-0.122000,29.47
0.594885,0.477000,-0.182000,-0.858000,-1.298000,2.015000,-0.229000,29.42
0.595312,0.479000,-0.182000,-0.855000,-1.115000,1.878000,-0.351000,29.42
0.595762,0.472000,-0.186000,-0.857000,-1.145000,1.939000,-0.504000,29.38
0.596184,0.473000,-0.177000,-0.861000,-1.206000,2.046000,-0.458000,29.38
0.596627,0.467000,-0.181000,-0.867000,-1.145000,2.290000,-0.504000,29.42
0.597074,0.475000,-0.179000,-0.857000,-0.870000,2.672000,-0.443000,29.42
0.597521,0.471000,-0.181000,-0.855000,-0.901000,2.901000,-0.489000,29.38
0.597959,0.475000,-0.176000,-0.861000,-0.275000,2.992000,-0.382000,29.38
0.598387,0.476000,-0.180000,-0.859000,-0.473000,3.160000,-0.275000,29.38
0.598809,0.473000,-0.179000,-0.854000,-0.061000,3.344000,-0.107000,29.52
0.599223,0.479000,-0.184000,-0.864000,-0.092000,3.328000,-0.305000,29.42
0.599633,0.475000,-0.182000,-0.854000,0.092000,3.099000,-0.061000,29.47
0.600081,0.477000,-0.181000,-0.854000,0.504000,3.145000,0.214000,29.28
0.600503,0.478000,-0.188000,-0.852000,0.595000,3.130000,0.198000,29.42
0.600929,0.480000,-0.184000,-0.864000,1.115000,3.282000,0.336000,29.33
0.601371,0.476000,-0.185000,-0.856000,1.511000,3.466000,0.427000,29.38
0.601800,0.479000,-0.183000,-0.855000,1.725000,3.267000,0.656000,29.38
0.602231,0.476000,-0.191000,-0.858000,1.863000,3.557000,0.733000,29.42
0.602670,0.477000,-0.180000,-0.856000,2.290000,3.420000,0.824000,29.33
0.603118,0.473000,-0.190000,-0.851000,2.565000,3.695000,1.130000,29.47
0.603548,0.475000,-0.188000,-0.856000,3.023000,3.511000,1.344000,29.38
0.603964,0.476000,-0.186000,-0.849000,3.527000,3.893000,1.466000,29.33
0.604399,0.477000,-0.187000,-0.862000,4.198000,3.893000,1.573000,29.28
0.604825,0.480000,-0.185000,-0.852000,4.015000,3.847000,1.969000,29.28
0.605252,0.476000,-0.195000,-0.861000,3.878000,4.061000,1.908000,29.38
0.605688,0.472000,-0.196000,-0.856000,3.557000,3.908000,1.924000,29.42
0.606104,0.481000,-0.200000,-0.854000,3.420000,3.908000,1.924000,29.42
0.606513,0.478000,-0.198000,-0.853000,3.038000,3.282000,1.756000,29.47
0.606923,0.476000,-0.199000,-0.852000,2.656000,3.252000,1.542000,29.47
0.607354,0.476000,-0.207000,-0.855000,1.893000,3.206000,1.298000,29.42
0.607783,0.475000,-0.204000,-0.848000,1.496000,3.359000,1.115000,29.42
0.608218,0.481000,-0.209000,-0.839000,1.191000,3.252000,1.038000,29.38
0.608639,0.480000,-0.208000,-0.853000,1.206000,3.069000,0.962000,29.38
0.609087,0.479000,-0.200000,-0.852000,0.947000,2.901000,0.718000,29.42
0.609492,0.482000,-0.200000,-0.854000,1.023000,3.038000,1.008000,29.42
0.610008,0.477000,-0.203000,-0.855000,0.656000,3.053000,0.824000,29.38
0.610618,0.479000,-0.197000,-0.855000,1.145000,2.519000,1.252000,29.47
0.611100,0.478000,-0.202000,-0.852000,1.863000,2.458000,1.863000,29.42
0.611535,0.490000,-0.193000,-0.845000,2.550000,1.496000,2.061000,29.47
0.611945,0.480000,-0.197000,-0.851000,3.756000,1.069000,2.489000,29.38
0.612358,0.476000,-0.200000,-0.851000,4.748000,1.725000,3.145000,29.38
0.612766,0.477000,-0.196000,-0.854000,6.382000,1.802000,3.664000,29.42
0.613169,0.474000,-0.203000,-0.854000,7.924000,1.573000,4.336000,29.42
0.613575,0.491000,-0.196000,-0.862000,8.504000,1.908000,5.176000,29.47
0.614034,0.510000,-0.200000,-0.862000,9.328000,0.305000,6.275000,29.38
0.614480,0.528000,-0.202000,-0.867000,9.725000,-1.588000,7.802000,29.42
0.614930,0.546000,-0.162000,-0.890000,12.244000,-5.282000,10.733000,29.42
0.615376,0.538000,-0.145000,-0.905000,16.687000,-9.069000,14.595000,29.38
0.615835,0.537000,-0.151000,-0.917000,24.290000,-12.656000,18.244000,29.28
0.616283,0.536000,-0.161000,-0.936000,35.527000,-13.145000,22.962000,29.42
0.616736,0.515000,-0.208000,-0.880000,45.115000,-14.092000,26.137000,29.42
0.617179,0.504000,-0.217000,-0.905000,52.504000,-11.344000,28.107000,29.38
0.617704,0.480000,-0.204000,-0.947000,56.916000,-11.664000,29.954000,29.47
0.618211,0.478000,-0.172000,-0.948000,64.824000,-15.130000,32.076000,29.42
0.618695,0.491000,-0.239000,-0.896000,70.137000,-22.702000,30.992000,29.33
0.619223,0.421000,-0.317000,-0.851000,63.863000,-12.901000,28.107000,29.28
0.619753,0.505000,-0.387000,-0.898000,63.893000,-12.321000,24.183000,29.38
0.626482,0.556000,-0.411000,-0.958000,69.740000,-14.382000,26.244000,29.42
0.636410,0.511000,-0.372000,-0.986000,78.962000,-17.863000,32.244000,29.42
0.646613,0.449000,-0.361000,-0.859000,76.244000,-28.687000,32.931000,29.38
0.656447,0.416000,-0.401000,-0.774000,67.954000,-37.160000,32.305000,29.38
0.666422,0.391000,-0.435000,-0.720000,64.885000,-44.763000,30.458000,29.42
0.676451,0.313000,-0.406000,-0.710000,55.496000,-37.588000,27.282000,29.42
0.686466,0.306000,-0.409000,-0.743000,47.313000,-32.397000,24.031000,29.47
0.696501,0.297000,-0.410000,-0.740000,42.519000,-27.038000,22.733000,29.38
0.706524,0.321000,-0.412000,-0.776000,37.771000,-17.908000,21.282000,29.42
0.716484,0.037000,-0.318000,-0.670000,32.824000,5.939000,23.099000,29.42
0.726482,0.177000,-0.457000,-0.643000,31.878000,-3.435000,17.725000,29.38
0.736499,0.264000,-0.454000,-0.702000,22.550000,14.687000,13.405000,29.38
0.746596,0.535000,-0.391000,-0.846000,31.603000,-26.153000,5.374000,29.38
0.756568,0.396000,-0.337000,-0.757000,-11.099000,33.374000,-1.282000,29.33
0.766517,0.100000,-0.613000,-0.733000,-0.916000,-1.099000,-7.908000,29.52
0.776567,0.312000,-0.586000,-0.661000,-15.374000,14.809000,-8.977000,29.38
0.786565,0.432000,-0.636000,-0.763000,-41.420000,30.458000,-9.817000,29.38
0.796757,0.448000,-0.687000,-0.729000,-48.992000,43.664000,-23.954000,29.33
0.806686,0.318000,-0.908000,-0.576000,-61.511000,61.786000,-33.634000,29.47
0.816665,0.151000,-0.837000,-0.492000,-89.573000,39.924000,-46.962000,29.38
0.826687,0.007000,-0.627000,-0.688000,-109.832000,48.947000,-58.122000,29.38
0.836784,0.094000,-0.388000,-0.879000,-122.061000,58.687000,-74.244000,29.33
0.846901,-0.064000,-0.494000,-0.899000,-123.084000,68.824000,-82.061000,29.42
0.857050,-0.502000,-0.076000,-1.269000,-74.931000,100.031000,-125.496000,29.38
0.866638,-0.211000,-0.945000,-2.403000,-15.405000,109.282000,-109.176000,29.38
0.876638,0.120000,-2.739000,-1.999000,-17.496000,86.473000,-61.710000,29.42
0.886644,-0.443000,-2.970000,-1.341000,-68.336000,73.817000,-10.198000,29.42
0.896958,-0.806000,-1.825000,-1.194000,-82.031000,59.374000,43.084000,29.38
0.906992,-0.928000,-1.166000,-1.317000,-32.733000,49.252000,74.168000,29.38
0.916714,-0.891000,-1.057000,-1.097000,-2.687000,55.634000,84.473000,29.33
0.927053,-1.002000,-0.727000,-1.286000,-12.565000,52.260000,81.267000,29.42
0.936780,-0.963000,-0.309000,-1.248000,-8.412000,36.443000,65.206000,29.38
0.946654,-0.968000,-0.080000,-1.103000,-6.076000,13.817000,39.588000,29.38
0.956609,-0.896000,-0.053000,-1.093000,-16.443000,-4.580000,10.397000,29.33
0.966547,-0.545000,-0.201000,-1.379000,-14.992000,-12.672000,-8.198000,29.38
0.976480,-0.010000,-0.498000,-1.807000,-1.893000,-44.153000,-7.985000,29.38
0.986441,0.344000,-0.661000,-1.934000,7.985000,-78.916000,13.389000,29.38
0.996485,0.505000,-0.712000,-1.714000,3.924000,-124.427000,43.344000,29.33
1.006416,0.469000,-0.575000,-1.152000,-1.145000,-140.870000,66.153000,29.33
1.016425,0.514000,-0.304000,-0.710000,-0.794000,-155.450000,87.618000,29.47
1.026439,0.596000,-0.147000,-0.552000,-5.771000,-132.519000,100.626000,29.47
1.036461,0.741000,-0.073000,-0.500000,-15.160000,-98.489000,107.344000,29.42
1.046457,0.815000,0.063000,-0.427000,-24.763000,-75.588000,107.664000,29.38
1.056405,0.867000,0.250000,-0.387000,-36.977000,-56.992000,99.359000,29.38
1.066376,0.889000,0.432000,-0.368000,-45.634000,-41.069000,80.504000,29.33
1.076407,0.860000,0.536000,-0.351000,-52.733000,-22.580000,53.008000,29.42
1.086419,0.954000,0.470000,-0.565000,-42.779000,-0.763000,23.832000,29.42
1.096550,1.338000,0.410000,-1.014000,-11.664000,11.313000,11.145000,29.47
1.106451,1.594000,0.280000,-1.356000,26.565000,-8.336000,12.992000,29.47
1.116532,1.629000,0.109000,-1.263000,53.954000,-39.450000,20.748000,29.52
1.126386,1.520000,0.061000,-0.929000,49.359000,-67.786000,17.969000,29.47
1.136412,1.260000,0.229000,-0.494000,31.237000,-69.435000,7.176000,29.38
1.146585,1.042000,0.602000,-0.757000,32.000000,-42.092000,-11.664000,29.42
1.156477,1.113000,0.533000,-0.172000,-4.519000,-12.229000,-27.786000,29.33
1.166449,1.306000,0.407000,-0.428000,16.672000,-79.679000,-43.481000,29.38
1.176461,1.405000,0.248000,-0.502000,2.137000,-80.962000,-57.679000,29.38
1.186515,2.263000,-1.535000,-0.222000,-169.664000,-139.374000,11.237000,29.47
1.196639,1.382000,0.077000,-0.512000,-35.008000,-102.656000,-68.244000,29.33
1.206588,1.247000,-0.094000,-0.365000,-39.176000,-45.099000,-56.947000,29.33
1.216508,1.364000,-0.335000,-0.525000,-35.511000,-63.344000,-41.130000,29.38
1.226563,1.212000,-0.593000,-0.718000,-26.641000,-72.015000,-9.008000,29.38
1.236617,0.267000,0.344000,-0.433000,19.710000,-81.466000,9.191000,29.42
1.246705,0.060000,-0.541000,0.891000,146.702000,-113.771000,52.061000,29.42
1.256631,0.244000,-1.206000,0.509000,99.206000,75.908000,31.969000,29.28
1.266691,0.214000,-1.330000,-1.790000,64.015000,2.412000,35.771000,29.47
1.276717,-0.400000,-0.964000,-0.745000,45.847000,85.634000,23.191000,29.42
1.286684,-0.106000,-0.189000,-0.611000,34.427000,112.672000,10.427000,29.38
1.296739,0.850000,0.151000,-1.831000,43.725000,87.252000,0.595000,29.38
1.306701,0.682000,0.500000,-1.828000,43.511000,43.985000,-10.840000,29.38
1.316820,0.092000,0.305000,-1.091000,58.137000,-8.122000,-33.786000,29.42
1.326776,-0.064000,-0.325000,-0.724000,68.855000,22.275000,-33.634000,29.42
1.336864,0.146000,-0.535000,-0.604000,77.374000,40.534000,-31.847000,29.38
1.346756,0.408000,-0.539000,-0.762000,69.191000,66.473000,-29.908000,29.47
1.356770,0.511000,-0.638000,-0.803000,56.718000,73.374000,-31.374000,29.42
1.366899,0.515000,-0.789000,-0.728000,46.427000,82.260000,-31.435000,29.42
1.376892,0.703000,-0.986000,-0.963000,18.321000,37.160000,-24.092000,29.38
1.386737,0.560000,-0.770000,-0.904000,-2.046000,26.763000,-18.641000,29.47
1.396891,0.446000,-0.596000,-0.854000,-5.115000,7.588000,-16.901000,29.42
1.406843,0.445000,-0.606000,-0.870000,-17.237000,5.924000,-15.496000,29.33
1.416922,0.359000,-0.544000,-0.834000,-25.359000,13.557000,-14.366000,29.38
1.426969,0.387000,-0.442000,-0.816000,-28.641000,7.878000,-16.794000,29.38
1.436777,0.325000,-0.350000,-0.801000,-28.092000,25.282000,-15.817000,29.33
1.447002,0.263000,-0.287000,-0.802000,-28.305000,22.336000,-18.351000,29.38
1.456847,0.298000,-0.336000,-0.812000,-27.221000,22.947000,-21.450000,29.28
1.466920,0.388000,-0.362000,-0.849000,-25.924000,13.176000,-23.282000,29.38
1.476928,0.504000,-0.396000,-0.808000,-25.466000,13.099000,-27.832000,29.42
1.486792,0.389000,-0.401000,-0.813000,-29.847000,34.931000,-25.053000,29.52
1.496901,0.361000,-0.443000,-0.812000,-33.282000,29.130000,-24.366000,29.47
1.506912,0.354000,-0.492000,-0.748000,-35.710000,26.611000,-22.947000,29.38
1.517083,0.354000,-0.450000,-0.772000,-39.176000,17.939000,-23.069000,29.33
1.527038,0.217000,-0.381000,-0.642000,-49.328000,27.878000,-25.130000,29.33
1.536909,0.105000,-0.431000,-0.545000,-68.397000,45.374000,-30.519000,29.47
1.547019,0.134000,-0.452000,-0.572000,-92.137000,58.763000,-38.046000,29.38
1.556918,0.371000,-0.409000,-0.873000,-109.145000,71.832000,-41.130000,29.33
1.566955,0.511000,-0.337000,-0.870000,-98.275000,73.191000,-38.092000,29.42
1.577051,0.633000,-0.247000,-1.116000,-73.176000,76.443000,-32.931000,29.38
1.586782,0.168000,-0.302000,-1.037000,-46.244000,71.649000,-18.916000,29.38
1.597231,0.489000,-0.178000,-1.198000,-87.817000,132.061000,-2.336000,29.42
1.606907,0.453000,-0.058000,-0.167000,48.443000,81.176000,-29.176000,29.38
1.616951,0.207000,-0.371000,-1.929000,42.870000,135.359000,-26.473000,29.47
1.627238,0.302000,-0.119000,-0.745000,18.885000,181.954000,-11.115000,29.38
1.636738,0.459000,-0.200000,-0.914000,0.275000,29.511000,-8.595000,29.42
1.646727,0.444000,-0.270000,-0.426000,34.504000,131.740000,-13.313000,29.42
1.656649,0.562000,-0.404000,-0.784000,14.565000,72.901000,-18.000000,29.38
1.666726,0.518000,-0.366000,-0.839000,1.954000,102.489000,-22.641000,29.38
1.676875,0.336000,-0.579000,-0.835000,5.176000,96.565000,-23.374000,29.42
1.687017,0.551000,-0.368000,-0.858000,-0.489000,123.649000,-28.947000,29.24
1.696826,0.308000,-0.461000,-0.834000,12.153000,157.618000,-44.885000,29.38
1.706756,0.149000,-0.795000,-0.982000,0.733000,185.450000,-61.557000,29.47
1.716861,0.197000,-0.389000,-1.025000,-3.084000,220.366000,-81.954000,29.42
1.726854,0.500000,-0.401000,-0.935000,10.427000,241.771000,-99.710000,29.42
1.736885,0.546000,-0.122000,-1.033000,16.076000,263.725000,-103.481000,29.38
1.746807,0.705000,-0.135000,-1.122000,29.405000,279.710000,-110.947000,29.38
1.756872,0.771000,-0.260000,-1.275000,18.901000,305.069000,-114.870000,29.33
1.766860,0.923000,-0.396000,-1.564000,7.603000,331.634000,-123.695000,29.38
1.776922,1.288000,-0.764000,-1.810000,-0.809000,361.389000,-132.763000,29.38
1.787022,1.872000,-0.875000,-2.117000,-24.107000,350.290000,-155.847000,29.28
1.796936,1.392000,-0.790000,-2.112000,-41.130000,322.504000,-170.153000,29.42
1.806968,0.453000,-1.471000,-2.648000,-26.580000,263.328000,-135.527000,29.42
1.816977,-0.407000,-3.892000,-3.719000,-84.687000,97.725000,-26.275000,29.38
1.827038,-0.630000,-2.689000,-2.276000,-155.664000,17.618000,12.855000,29.38
1.836963,-1.099000,-1.351000,-2.027000,-180.809000,-56.443000,18.565000,29.42
1.847001,-1.754000,-0.710000,-1.553000,-191.145000,69.115000,10.824000,29.52
1.856951,-0.481000,-1.844000,-1.872000,-101.221000,-303.481000,-8.183000,29.47
1.867035,-1.026000,-0.855000,-1.318000,-81.221000,-183.969000,-3.573000,29.38
1.877060,-0.818000,-0.928000,-1.274000,-37.786000,-269.557000,-20.672000,29.42
1.887057,-0.354000,-0.892000,-1.113000,-69.527000,-203.695000,-23.389000,29.33
1.897055,-0.146000,-0.858000,-1.018000,-57.450000,-227.740000,-17.664000,29.38
1.906946,0.035000,-0.804000,-0.980000,-25.466000,-248.733000,-5.252000,29.47
1.916968,0.158000,-0.882000,-0.834000,3.496000,-250.214000,12.504000,29.42
1.927052,0.195000,-0.893000,-0.764000,33.008000,-252.656000,34.641000,29.42
1.937076,0.401000,-0.905000,-0.852000,40.015000,-249.038000,54.718000,29.47
1.946804,0.548000,-0.879000,-0.962000,52.931000,-189.802000,82.305000,29.38
1.956890,0.716000,-0.747000,-1.044000,57.374000,-169.099000,104.809000,29.42
1.966930,0.722000,-0.618000,-1.045000,61.832000,-147.221000,123.038000,29.33
1.976983,0.847000,-0.418000,-1.089000,72.733000,-162.504000,132.336000,29.47
1.986904,0.900000,-0.225000,-1.201000,85.053000,-154.977000,135.313000,29.47
2.000055,0.986000,-0.310000,-1.359000,96.443000,-163.847000,135.802000,29.42
2.008533,1.139000,-0.130000,-1.474000,103.389000,-180.076000,131.954000,29.33
2.017217,1.281000,-0.108000,-1.523000,94.458000,-187.221000,127.191000,29.38
2.026791,1.272000,0.002000,-1.409000,75.405000,-195.954000,116.626000,29.38
2.036435,1.311000,0.211000,-1.261000,71.511000,-205.160000,102.275000,29.38
2.046537,1.370000,0.305000,-1.150000,69.802000,-212.824000,86.595000,29.52
2.056469,1.465000,0.318000,-0.984000,79.420000,-220.351000,70.718000,29.42
2.066465,1.484000,0.334000,-0.817000,82.092000,-198.763000,56.672000,29.38
2.076476,1.635000,0.365000,-0.704000,78.977000,-178.595000,41.985000,29.47
2.086488,1.662000,0.360000,-0.562000,80.244000,-141.237000,29.725000,29.33
2.096629,1.815000,0.454000,-0.410000,76.000000,-115.267000,20.565000,29.42
2.106550,1.921000,0.493000,-0.429000,76.962000,-85.374000,14.809000,29.47
2.116545,2.430000,0.456000,-0.876000,86.275000,-68.427000,20.580000,29.38
2.126558,2.740000,0.642000,-0.912000,91.023000,-83.985000,29.588000,29.42
2.136626,1.751000,1.375000,0.182000,-145.618000,321.420000,178.260000,29.38
2.146649,1.955000,1.169000,0.099000,100.015000,-220.656000,-12.885000,29.47
2.156648,2.039000,1.201000,0.294000,55.771000,-93.282000,-11.511000,29.47
2.166606,2.244000,1.076000,0.091000,55.176000,-126.107000,-35.267000,29.42
2.176857,2.381000,0.705000,-0.011000,9.053000,-69.221000,-34.153000,29.42
2.186691,2.177000,0.377000,0.892000,-12.687000,-24.885000,-68.443000,29.38
2.196768,2.003000,1.418000,1.267000,-99.221000,22.763000,-94.397000,29.47
2.206698,1.398000,0.873000,0.741000,-70.748000,64.794000,-95.267000,29.33
2.216836,1.236000,-0.736000,-1.546000,-5.542000,80.931000,-77.588000,29.42
2.226884,0.819000,-1.777000,-2.085000,-12.458000,46.351000,-44.840000,29.47
2.236795,-0.228000,-2.188000,-0.566000,-40.794000,34.260000,-50.656000,29.47
2.246932,0.075000,-1.067000,-0.202000,-18.153000,91.557000,-34.244000,29.42
2.256818,0.958000,0.266000,-1.298000,3.893000,129.802000,-32.061000,29.42
2.266873,1.057000,1.191000,-2.137000,-4.153000,164.855000,-25.069000,29.47
2.276910,0.429000,0.998000,-1.525000,36.534000,82.229000,-42.275000,29.47
2.286951,0.424000,-0.047000,-1.152000,67.527000,89.496000,-40.641000,29.33
2.296846,0.655000,-0.758000,-1.016000,42.992000,109.496000,-23.450000,29.42
2.306970,0.844000,-0.568000,-1.149000,60.305000,90.641000,-22.947000,29.38
2.316915,0.642000,-0.120000,-1.232000,48.351000,105.084000,-15.115000,29.47
2.326965,0.672000,-0.532000,-0.948000,55.679000,78.183000,-8.885000,29.42
2.336760,0.621000,-0.828000,-0.688000,48.672000,65.954000,-4.015000,29.42
2.346832,0.648000,-0.610000,-1.020000,32.626000,45.969000,1.466000,29.38
2.356871,0.575000,-0.553000,-0.761000,28.550000,53.084000,1.298000,29.28
2.366958,0.504000,-0.656000,-0.882000,14.305000,34.992000,-1.298000,29.38
2.377029,0.521000,-0.774000,-0.680000,8.779000,32.275000,-6.214000,29.42
2.387105,0.390000,-0.582000,-0.710000,-3.985000,13.038000,-10.931000,29.42
2.396993,0.374000,-0.508000,-0.735000,-11.313000,8.061000,-16.015000,29.47
2.407035,0.410000,-0.467000,-0.739000,-20.260000,10.382000,-19.466000,29.38
2.417042,0.380000,-0.405000,-0.775000,-28.885000,15.206000,-23.908000,29.42
2.426953,0.376000,-0.387000,-0.728000,-34.275000,15.038000,-27.802000,29.33
2.437034,0.389000,-0.467000,-0.730000,-40.687000,17.588000,-30.992000,29.38
2.447155,0.470000,-0.406000,-0.931000,-48.748000,9.069000,-32.855000,29.47
2.456936,0.409000,-0.405000,-0.762000,-52.748000,33.588000,-34.550000,29.33
2.466947,0.424000,-0.476000,-0.714000,-52.885000,28.397000,-35.969000,29.33
2.477034,0.483000,-0.415000,-0.794000,-64.473000,35.649000,-38.305000,29.47
2.487063,0.477000,-0.448000,-0.781000,-69.481000,26.260000,-40.427000,29.38
2.496937,0.548000,-0.456000,-0.903000,-72.031000,38.031000,-39.817000,29.42
2.507070,0.234000,-0.274000,-0.635000,-61.924000,42.076000,-52.611000,29.38
2.517024,0.260000,-0.472000,-0.343000,-44.397000,32.794000,-31.313000,29.38
2.527019,0.523000,-0.343000,-0.938000,-46.977000,28.595000,-32.824000,29.38
2.537039,0.449000,-0.307000,-0.789000,-44.183000,24.733000,-33.924000,29.42
2.547125,0.587000,-0.256000,-0.941000,-45.527000,38.260000,-32.672000,29.42
2.557005,0.541000,-0.264000,-0.860000,-39.740000,31.695000,-30.763000,29.38
2.567148,0.507000,-0.205000,-0.824000,-37.710000,32.595000,-30.275000,29.47
2.577237,0.469000,-0.255000,-0.823000,-35.359000,43.954000,-30.244000,29.52
2.587165,0.536000,-0.208000,-0.848000,-29.496000,52.412000,-29.221000,29.33
2.597193,0.525000,-0.183000,-0.838000,-20.443000,61.786000,-27.313000,29.47
2.607159,0.490000,-0.218000,-0.828000,-11.695000,72.595000,-26.000000,29.38
2.617119,0.523000,-0.280000,-0.855000,-6.779000,84.458000,-24.000000,29.42
2.627187,0.519000,-0.250000,-0.843000,-8.779000,103.023000,-19.939000,29.42
2.637149,0.511000,-0.345000,-0.803000,-10.489000,115.695000,-20.595000,29.38
2.647118,0.456000,-0.298000,-0.834000,-16.427000,142.061000,-22.473000,29.47
2.657186,0.487000,-0.282000,-0.836000,-9.282000,158.427000,-28.916000,29.42
2.667195,0.520000,-0.309000,-0.758000,-11.893000,180.260000,-36.885000,29.47
2.677251,0.521000,-0.215000,-0.811000,-5.359000,190.214000,-44.321000,29.47
2.687126,0.567000,-0.252000,-0.755000,-0.580000,197.435000,-48.092000,29.38
2.696964,0.549000,-0.186000,-0.755000,-1.069000,221.313000,-51.206000,29.33
2.707152,0.608000,-0.150000,-0.819000,-4.382000,250.992000,-56.290000,29.42
2.717228,0.573000,-0.191000,-0.902000,-7.069000,274.260000,-63.756000,29.38
2.727062,0.750000,-0.285000,-0.973000,-12.290000,311.924000,-77.466000,29.47
2.737143,0.911000,-0.451000,-1.223000,-7.939000,348.122000,-91.511000,29.42
2.747059,1.028000,-0.652000,-1.307000,17.191000,364.000000,-100.458000,29.42
2.756985,1.579000,-0.671000,-1.727000,70.870000,387.634000,-93.511000,29.47
2.767219,2.087000,-0.667000,-1.836000,100.794000,391.160000,-106.962000,29.38
2.777104,2.046000,-0.449000,-1.871000,55.130000,394.962000,-143.893000,29.52
2.787258,1.987000,-0.731000,-2.142000,-13.160000,373.282000,-175.160000,29.33
2.797117,1.814000,-0.836000,-2.218000,-45.405000,313.740000,-179.985000,29.47
2.807201,0.007000,-2.056000,-3.067000,-54.122000,249.176000,-125.420000,29.47
2.817124,-0.086000,-4.000000,-3.514000,-127.130000,115.786000,30.977000,29.33
2.826993,0.759000,-3.139000,-4.000000,-258.092000,2.733000,54.840000,29.47
2.837167,-1.497000,-0.794000,-2.499000,-282.290000,-145.893000,55.954000,29.38
2.846992,-1.254000,0.668000,-2.788000,-194.229000,-192.748000,2.855000,29.47
2.856952,-0.650000,0.412000,-2.777000,-104.000000,-211.832000,-64.336000,29.42
2.867196,-0.557000,-0.441000,-2.203000,-71.298000,-246.137000,-114.626000,29.52
2.877115,-0.297000,-0.856000,-1.876000,-63.374000,-315.527000,-144.702000,29.47
2.887178,-0.051000,-0.664000,-1.434000,-39.191000,-368.076000,-158.153000,29.47
2.897081,0.189000,-0.556000,-1.181000,2.718000,-381.893000,-157.405000,29.33
2.907129,0.417000,-0.823000,-0.994000,47.710000,-373.023000,-140.855000,29.42
2.917078,0.668000,-1.067000,-0.740000,71.359000,-356.504000,-114.504000,29.38
2.927165,0.953000,-1.375000,-0.589000,74.351000,-336.916000,-70.519000,29.38
2.937138,1.148000,-1.516000,-0.566000,61.511000,-320.473000,-11.786000,29.47
2.947189,1.176000,-1.457000,-0.702000,55.145000,-303.176000,46.000000,29.33
2.956971,1.278000,-1.145000,-0.786000,66.565000,-287.450000,99.298000,29.52
2.967147,1.375000,-0.930000,-0.818000,83.939000,-272.076000,141.756000,29.38
2.977057,1.506000,-0.779000,-0.805000,87.893000,-256.962000,179.145000,29.47
2.987166,1.492000,-0.435000,-0.386000,-68.092000,-250.290000,192.443000,29.52
2.997094,2.291000,0.902000,-1.916000,71.496000,-195.115000,216.626000,29.42
3.007189,1.717000,0.237000,-0.991000,162.092000,-226.275000,248.840000,29.38
3.017151,1.682000,-0.837000,-0.434000,108.092000,-206.794000,223.313000,29.38
3.027209,1.957000,-0.500000,-0.615000,18.992000,-197.649000,204.931000,29.42
3.037017,1.897000,0.114000,-0.748000,-9.985000,-194.336000,179.466000,29.47
3.046998,1.918000,0.629000,-0.957000,30.992000,-206.305000,161.618000,29.47
3.057063,1.993000,0.701000,-0.941000,80.901000,-201.863000,137.237000,29.38
3.066909,1.997000,0.509000,-0.839000,104.229000,-189.481000,110.168000,29.42
3.076813,2.122000,0.411000,-0.772000,103.038000,-182.260000,81.099000,29.33
3.086699,2.077000,0.617000,-0.746000,99.985000,-177.603000,57.115000,29.38
3.096856,2.082000,0.697000,-0.584000,109.725000,-170.779000,39.908000,29.38
3.106700,2.113000,0.649000,-0.431000,119.847000,-160.779000,26.870000,29.52
3.116667,2.180000,0.569000,-0.359000,113.176000,-143.099000,19.359000,29.33
3.126759,2.215000,0.534000,-0.208000,100.412000,-125.313000,12.977000,29.38
3.136808,2.201000,0.632000,-0.024000,88.916000,-106.656000,4.550000,29.38
3.146885,2.027000,0.748000,0.172000,87.466000,-86.504000,-3.374000,29.52
3.156893,2.176000,1.209000,0.129000,64.122000,-17.282000,-7.435000,29.42
3.166835,2.050000,0.755000,0.056000,95.466000,-75.084000,-13.389000,29.47
3.176968,2.049000,0.566000,0.031000,71.206000,-26.870000,-0.702000,29.38
3.186979,1.995000,0.654000,0.090000,79.863000,-20.153000,-1.786000,29.42
3.196913,2.692000,0.042000,0.436000,-13.130000,32.122000,0.931000,29.47
3.206790,2.046000,1.034000,1.282000,-82.641000,63.405000,-25.389000,29.38
3.216982,0.367000,0.833000,-0.114000,-30.534000,129.389000,-14.305000,29.47
3.227011,1.421000,-0.106000,-2.421000,-13.282000,109.435000,-0.336000,29.42
3.236905,0.127000,-0.361000,-1.993000,-25.237000,48.382000,-19.695000,29.42
3.247166,-0.860000,-0.207000,-0.766000,-16.122000,67.740000,-61.267000,29.38
3.256906,0.159000,-0.429000,-0.677000,31.908000,73.939000,-66.534000,29.47
3.267025,0.965000,-0.242000,-1.262000,19.374000,136.962000,-55.771000,29.52
3.276988,0.806000,0.363000,-1.545000,18.641000,134.076000,-59.420000,29.42
3.286915,0.618000,0.497000,-1.606000,32.061000,122.763000,-75.344000,29.38
3.296777,0.728000,-0.102000,-1.329000,44.840000,108.031000,-73.282000,29.38
3.306868,0.743000,-1.104000,-1.349000,45.176000,142.427000,-55.664000,29.42
3.316967,0.673000,-0.965000,-0.742000,-16.504000,170.305000,-40.962000,29.42
3.326932,0.640000,-0.569000,-0.912000,1.359000,-5.496000,-38.748000,29.38
3.336925,0.623000,-0.506000,-0.959000,-27.130000,46.840000,-35.008000,29.47
3.347070,0.664000,-0.701000,-0.835000,-37.664000,55.023000,-33.038000,29.42
3.356946,0.655000,-0.655000,-0.852000,-45.634000,51.939000,-31.038000,29.42
3.367008,0.465000,-0.403000,-0.877000,-49.191000,37.450000,-30.519000,29.38
3.377013,0.373000,-0.421000,-0.865000,-45.649000,5.802000,-31.084000,29.38
3.387061,0.327000,-0.502000,-0.784000,-52.000000,11.893000,-30.137000,29.42
3.397092,0.299000,-0.400000,-0.779000,-62.641000,32.397000,-32.595000,29.52
3.406983,0.332000,-0.326000,-0.828000,-70.000000,52.076000,-34.550000,29.38
3.417020,0.436000,-0.349000,-0.863000,-71.695000,48.382000,-35.893000,29.47
3.426894,0.478000,-0.326000,-0.926000,-69.389000,39.710000,-35.496000,29.47
3.436933,0.511000,-0.300000,-0.934000,-61.817000,33.160000,-34.916000,29.33
3.446895,0.518000,-0.335000,-0.889000,-53.466000,33.847000,-33.267000,29.42
3.457030,0.604000,-0.222000,-0.974000,-39.359000,27.649000,-29.160000,29.57
3.466958,0.492000,-0.377000,-0.818000,-34.977000,25.176000,-29.221000,29.38
3.477036,0.495000,-0.307000,-0.834000,-33.008000,21.313000,-30.000000,29.42
3.487022,0.489000,-0.260000,-0.856000,-30.702000,22.534000,-29.237000,29.42
