# Gait Analysis Data - MPU6050 IMU
# Duration: 10 seconds
# Format: timestamp(s),ax(g),ay(g),az(g),gx(deg/s),gy(deg/s),gz(deg/s),temp(C)
# Note: Document sensor placement (ankle/wrist) separately
timestamp,ax,ay,az,gx,gy,gz,temp
0.000977,2.113000,1.219000,-1.143000,202.473000,-103.802000,127.649000,29.47
0.002041,2.310000,1.408000,-1.051000,203.267000,-92.901000,119.802000,29.38
0.002976,2.649000,1.434000,-1.073000,184.153000,-92.305000,111.496000,29.52
0.003896,2.911000,1.395000,-0.899000,149.527000,-113.435000,101.084000,29.52
0.005044,3.075000,1.326000,-0.492000,101.634000,-139.786000,87.786000,29.47
0.006105,2.898000,1.353000,0.056000,59.832000,-140.107000,70.885000,29.47
0.007010,2.668000,1.432000,0.621000,36.489000,-125.435000,52.427000,29.38
0.007904,2.665000,1.177000,1.111000,-20.809000,-74.748000,36.885000,29.42
0.008906,2.661000,0.875000,1.542000,-92.687000,-23.084000,31.664000,29.33
0.009956,3.140000,1.195000,1.501000,-168.443000,33.588000,37.832000,29.47
0.011149,2.796000,2.188000,1.823000,-190.962000,104.198000,39.450000,29.47
0.012360,-0.036000,0.766000,-0.879000,-85.863000,155.710000,26.519000,29.42
0.013009,0.302000,0.368000,-3.353000,-107.252000,64.840000,-37.695000,29.52
0.013598,-0.447000,0.558000,-2.593000,-51.710000,73.939000,-70.412000,29.38
0.014190,-0.419000,0.852000,-0.290000,-50.397000,87.405000,-134.641000,29.38
0.014762,1.579000,0.017000,-1.444000,-9.282000,134.641000,-144.809000,29.42
0.015335,2.443000,-0.861000,-2.209000,-61.725000,49.344000,-107.588000,29.42
0.015901,1.010000,-0.147000,-1.193000,-68.092000,45.634000,-73.725000,29.38
0.016701,0.473000,-0.067000,-1.034000,-71.405000,67.130000,-68.290000,29.38
0.017533,0.610000,-0.004000,-1.307000,-59.634000,40.366000,-52.870000,29.42
0.018336,0.606000,-0.135000,-0.967000,-63.389000,43.466000,-42.992000,29.47
0.019128,0.806000,-0.648000,-1.265000,-86.015000,60.183000,-34.351000,29.47
0.019916,0.479000,-0.581000,-0.824000,-88.260000,60.336000,-33.756000,29.47
0.020890,0.578000,-0.439000,-0.947000,-67.298000,-20.183000,-38.763000,29.52
0.021784,0.657000,-0.331000,-1.077000,-73.985000,24.962000,-33.847000,29.42
0.022600,0.535000,-0.346000,-0.861000,-65.221000,3.832000,-32.718000,29.47
0.023378,0.501000,-0.323000,-0.877000,-64.550000,8.550000,-33.374000,29.38
0.024119,0.512000,-0.220000,-0.973000,-58.489000,7.924000,-32.611000,29.42
0.024821,0.450000,-0.174000,-1.017000,-50.260000,16.305000,-32.397000,29.42
0.025408,0.494000,-0.175000,-0.953000,-41.023000,17.679000,-31.145000,29.47
0.025983,0.491000,-0.068000,-0.941000,-30.473000,13.786000,-26.641000,29.38
0.026546,0.442000,-0.136000,-0.901000,-23.908000,16.153000,-24.275000,29.33
0.027116,0.482000,-0.142000,-0.931000,-18.321000,14.229000,-23.634000,29.42
0.027687,0.469000,-0.139000,-0.873000,-16.611000,15.603000,-22.397000,29.38
0.028338,0.461000,-0.124000,-0.864000,-13.634000,15.725000,-20.855000,29.57
0.029021,0.656000,-0.680000,-0.105000,36.702000,76.153000,-18.382000,29.42
0.029703,0.161000,0.233000,-0.591000,-22.183000,152.855000,-24.687000,29.38
0.030455,0.540000,-0.131000,-0.906000,9.496000,-105.756000,-23.679000,29.38
0.031194,0.488000,-0.174000,-0.876000,-17.496000,17.206000,-17.160000,29.47
0.031890,0.500000,-0.157000,-0.860000,-18.641000,11.893000,-16.763000,29.42
0.032506,0.512000,-0.130000,-0.893000,-20.412000,26.824000,-16.702000,29.42
0.033126,0.502000,-0.119000,-0.871000,-16.840000,20.565000,-16.565000,29.47
0.033749,0.527000,-0.142000,-0.864000,-11.267000,14.305000,-17.206000,29.47
0.034371,0.370000,-0.025000,-0.820000,-9.237000,16.962000,-16.366000,29.52
0.035216,0.511000,-0.128000,-0.892000,-10.092000,19.527000,-15.573000,29.42
0.035902,0.474000,-0.112000,-0.859000,-12.366000,35.710000,-14.168000,29.38
0.036539,0.501000,-0.087000,-0.884000,-13.160000,29.725000,-13.191000,29.47
0.037162,0.525000,-0.129000,-0.864000,-13.176000,43.863000,-12.229000,29.42
0.037844,0.497000,-0.132000,-0.833000,-7.908000,35.802000,-11.557000,29.42
0.038580,0.472000,-0.106000,-0.854000,-7.328000,40.489000,-11.053000,29.47
0.039268,0.496000,-0.150000,-0.849000,-4.931000,46.672000,-10.366000,29.38
0.039865,0.481000,-0.120000,-0.857000,-7.511000,57.969000,-9.969000,29.52
0.040461,0.468000,-0.156000,-0.881000,-6.824000,72.198000,-9.908000,29.42
0.041017,0.486000,-0.213000,-0.913000,-8.122000,86.031000,-12.779000,29.38
0.041577,0.505000,-0.207000,-0.893000,-14.580000,106.061000,-14.931000,29.47
0.042134,0.504000,-0.170000,-0.857000,-20.565000,115.664000,-21.069000,29.42
0.042693,0.462000,-0.153000,-0.863000,-24.198000,133.038000,-31.115000,29.52
0.043258,0.544000,-0.043000,-0.900000,-29.237000,162.702000,-48.137000,29.57
0.043817,0.305000,-0.172000,-0.852000,-22.244000,197.664000,-55.267000,29.38
0.044376,0.525000,-0.072000,-0.937000,-12.641000,222.275000,-65.939000,29.38
0.045013,0.456000,0.002000,-0.844000,15.298000,235.420000,-70.885000,29.52
0.045702,0.535000,-0.057000,-0.945000,42.214000,257.802000,-82.580000,29.42
0.046303,0.637000,-0.092000,-0.967000,70.809000,269.115000,-99.649000,29.38
0.046915,0.982000,-0.638000,-1.492000,63.863000,264.168000,-121.878000,29.47
0.047498,0.782000,-0.529000,-1.326000,-2.473000,323.282000,-130.489000,29.33
0.048064,1.552000,-0.528000,-1.751000,-24.214000,368.840000,-134.885000,29.33
0.048627,2.017000,-0.777000,-2.590000,-15.206000,364.382000,-152.656000,29.38
0.049190,2.185000,-0.851000,-2.237000,-10.534000,342.534000,-181.817000,29.38
0.049752,1.019000,-0.838000,-2.522000,-8.962000,269.420000,-165.695000,29.42
0.050307,-0.694000,-3.553000,-2.825000,37.908000,119.725000,-25.603000,29.42
0.050864,-0.329000,-3.279000,-2.256000,6.305000,83.893000,32.748000,29.47
0.051409,-1.095000,-2.324000,-1.169000,-50.076000,-54.931000,80.122000,29.38
0.051928,-0.932000,-1.543000,-1.476000,-47.435000,-18.366000,101.679000,29.42
0.052440,-0.460000,-1.343000,-1.896000,-18.015000,-29.664000,121.359000,29.38
0.052951,-0.422000,-1.088000,-1.693000,3.298000,-77.664000,125.573000,29.38
0.053467,-0.573000,-0.885000,-1.362000,-6.397000,-116.275000,116.351000,29.38
0.053985,-0.286000,-0.558000,-1.252000,-36.687000,-185.786000,91.435000,29.52
0.054597,-0.182000,-0.237000,-1.232000,-27.328000,-236.489000,67.221000,29.33
0.055280,0.066000,-0.022000,-1.071000,10.321000,-244.458000,45.359000,29.38
0.055833,0.293000,-0.047000,-1.120000,49.405000,-261.328000,28.885000,29.47
0.056363,0.540000,-0.254000,-0.988000,79.038000,-268.198000,19.130000,29.42
0.056888,0.783000,-0.517000,-0.934000,87.969000,-280.595000,21.130000,29.52
0.057434,0.890000,-0.638000,-0.901000,86.046000,-274.244000,33.481000,29.47
0.058093,0.954000,-0.613000,-0.864000,90.183000,-268.687000,54.763000,29.47
0.058705,1.049000,-0.391000,-0.819000,100.794000,-250.061000,79.160000,29.52
0.059229,1.087000,-0.154000,-0.796000,115.985000,-223.145000,100.137000,29.42
0.059826,1.148000,0.037000,-0.873000,129.053000,-197.435000,111.237000,29.47
0.060387,1.234000,0.191000,-1.018000,132.748000,-177.099000,111.053000,29.57
0.060915,1.365000,0.360000,-1.202000,128.626000,-172.229000,100.855000,29.52
0.061415,1.457000,0.634000,-1.330000,125.405000,-170.733000,82.183000,29.42
0.061895,1.567000,0.906000,-1.276000,129.939000,-188.931000,57.221000,29.47
0.062369,1.532000,1.001000,-1.175000,128.382000,-196.794000,24.168000,29.47
0.062843,1.571000,1.073000,-1.013000,123.221000,-195.557000,-10.290000,29.38
0.063358,1.626000,1.101000,-0.843000,121.130000,-184.458000,-44.473000,29.42
0.063874,1.706000,1.081000,-0.727000,123.405000,-161.817000,-72.061000,29.38
0.064355,1.757000,1.117000,-0.679000,130.718000,-142.748000,-89.924000,29.38
0.064896,1.882000,0.979000,-0.487000,145.313000,-118.183000,-101.359000,29.38
0.065520,1.875000,0.459000,0.164000,115.863000,-92.901000,-112.855000,29.42
0.066047,1.757000,1.119000,0.178000,89.664000,-65.099000,-127.420000,29.42
0.066538,1.672000,1.181000,0.361000,102.748000,-16.015000,-118.855000,29.47
0.067016,1.752000,0.959000,0.342000,94.809000,21.863000,-108.046000,29.47
0.067482,1.890000,0.592000,0.348000,70.397000,59.099000,-93.069000,29.52
0.067939,2.170000,0.489000,0.097000,11.573000,68.168000,-78.351000,29.42
0.068414,2.959000,0.333000,-0.458000,-162.840000,5.130000,-138.397000,29.47
0.068892,2.273000,1.787000,-0.122000,-208.550000,-16.962000,-144.489000,29.38
0.069414,1.724000,2.470000,-0.733000,-202.473000,-82.046000,-156.137000,29.42
0.069892,1.414000,-0.961000,-2.320000,-79.542000,-135.420000,-75.130000,29.42
0.070383,-0.198000,-0.015000,-0.364000,-84.473000,-86.672000,-39.710000,29.47
0.070869,-0.283000,-0.010000,-1.349000,-100.992000,-78.489000,-64.397000,29.47
0.071341,1.038000,-0.514000,-1.921000,-61.939000,-33.267000,-51.985000,29.38
0.071805,0.322000,-0.259000,-0.385000,-64.290000,-11.786000,-55.573000,29.33
0.072256,0.662000,0.259000,-1.327000,-35.206000,-14.061000,-40.992000,29.52
0.072713,0.536000,0.039000,-1.022000,-11.588000,12.412000,-30.885000,29.47
0.073165,0.463000,-0.136000,-0.854000,-1.252000,6.611000,-25.924000,29.47
0.073610,0.437000,-0.224000,-0.953000,-0.229000,7.038000,-25.221000,29.52
0.074065,0.479000,-0.200000,-0.938000,-1.649000,13.573000,-23.756000,29.47
0.074513,0.473000,-0.060000,-0.895000,-1.008000,14.336000,-20.244000,29.47
0.075108,0.473000,-0.153000,-0.891000,-0.885000,18.595000,-16.611000,29.47
0.075728,0.471000,-0.186000,-0.884000,-1.405000,22.977000,-14.366000,29.42
0.076207,0.509000,-0.239000,-0.869000,-2.214000,23.893000,-13.267000,29.42
0.076657,0.510000,-0.234000,-0.886000,-4.305000,22.015000,-13.099000,29.47
0.077113,0.490000,-0.228000,-0.882000,-7.221000,21.130000,-13.176000,29.47
0.077567,0.490000,-0.207000,-0.859000,-9.328000,20.565000,-13.267000,29.42
0.078022,0.490000,-0.176000,-0.876000,-9.893000,18.076000,-13.069000,29.42
0.078478,0.488000,-0.148000,-0.872000,-9.221000,16.427000,-11.038000,29.57
0.078920,0.493000,-0.121000,-0.882000,-6.519000,13.237000,-8.565000,29.47
0.079352,0.476000,-0.099000,-0.885000,-3.634000,15.695000,-5.557000,29.42
0.079784,0.468000,-0.116000,-0.878000,0.550000,13.740000,-3.420000,29.42
0.080211,0.631000,-0.277000,-0.836000,8.580000,18.718000,-2.748000,29.38
0.080675,0.221000,-0.083000,-0.514000,-10.214000,76.901000,1.328000,29.38
0.081124,0.594000,-0.076000,-0.951000,25.176000,-70.931000,-0.641000,29.42
0.081561,0.496000,-0.169000,-0.868000,11.160000,-1.649000,3.252000,29.28
0.081989,0.502000,-0.168000,-0.862000,10.992000,0.214000,4.183000,29.47
0.082414,0.499000,-0.178000,-0.848000,6.916000,20.809000,5.191000,29.38
0.082844,0.508000,-0.177000,-0.854000,12.107000,10.290000,5.450000,29.42
0.083269,0.488000,-0.171000,-0.850000,14.290000,8.718000,5.847000,29.42
0.083698,0.491000,-0.176000,-0.865000,17.099000,-1.756000,6.107000,29.38
0.084120,0.478000,-0.177000,-0.857000,17.023000,2.916000,6.412000,29.38
0.084560,0.477000,-0.180000,-0.854000,15.954000,10.092000,6.870000,29.42
0.085112,0.472000,-0.172000,-0.842000,15.740000,10.107000,7.359000,29.42
0.085743,0.470000,-0.200000,-0.853000,15.557000,8.092000,7.588000,29.47
0.086205,0.501000,-0.207000,-0.843000,15.710000,4.382000,7.863000,29.47
0.086654,0.470000,-0.200000,-0.823000,10.580000,6.031000,8.458000,29.52
0.087095,0.504000,-0.215000,-0.862000,12.473000,-5.878000,7.374000,29.52
0.087535,0.472000,-0.221000,-0.830000,9.756000,-0.626000,7.252000,29.47
0.087987,0.477000,-0.239000,-0.838000,8.321000,0.809000,6.412000,29.47
0.088451,0.491000,-0.235000,-0.840000,6.046000,5.313000,5.771000,29.52
0.088928,0.498000,-0.221000,-0.875000,11.481000,-6.626000,4.275000,29.47
0.089342,0.490000,-0.237000,-0.857000,5.710000,3.557000,5.008000,29.38
0.089756,0.482000,-0.219000,-0.846000,3.099000,-1.282000,6.718000,29.38
0.090177,0.482000,-0.219000,-0.856000,4.611000,-5.099000,6.916000,29.42
0.090607,0.509000,-0.210000,-0.867000,7.695000,-3.038000,7.817000,29.42
0.091027,0.503000,-0.191000,-0.879000,10.748000,-3.130000,8.290000,29.38
0.091445,0.507000,-0.191000,-0.869000,12.336000,-6.351000,10.076000,29.47
0.091896,0.493000,-0.209000,-0.871000,13.084000,-9.985000,12.504000,29.42
0.092351,0.471000,-0.222000,-0.857000,13.664000,-5.130000,12.672000,29.42
0.092796,0.454000,-0.237000,-0.866000,13.740000,-1.649000,12.794000,29.47
0.093223,0.448000,-0.256000,-0.842000,12.885000,-1.206000,12.015000,29.47
0.093651,0.438000,-0.281000,-0.835000,11.511000,-1.832000,10.504000,29.42
0.094076,0.448000,-0.280000,-0.848000,9.664000,-0.107000,9.206000,29.42
0.094493,0.465000,-0.247000,-0.848000,9.634000,2.214000,9.298000,29.47
0.095068,0.481000,-0.243000,-0.870000,9.328000,3.282000,10.290000,29.38
0.095683,0.479000,-0.269000,-0.864000,8.214000,2.427000,10.855000,29.42
0.096129,0.478000,-0.292000,-0.863000,6.519000,4.687000,11.115000,29.42
0.096544,0.486000,-0.304000,-0.844000,4.519000,3.893000,9.847000,29.47
0.096954,0.473000,-0.300000,-0.840000,3.176000,4.947000,8.611000,29.47
0.097384,0.475000,-0.281000,-0.839000,3.954000,2.198000,7.527000,29.42
0.097807,0.465000,-0.261000,-0.852000,2.779000,4.214000,6.702000,29.42
0.098224,0.469000,-0.277000,-0.835000,5.939000,-6.718000,6.840000,29.47
0.098635,0.478000,-0.264000,-0.861000,6.641000,-1.786000,6.733000,29.38
0.099052,0.505000,-0.214000,-0.890000,13.328000,4.733000,8.168000,29.52
0.099469,0.531000,-0.219000,-0.906000,22.397000,5.191000,11.084000,29.42
0.099889,0.513000,-0.239000,-0.909000,33.435000,4.824000,13.450000,29.42
0.100324,0.485000,-0.229000,-0.939000,43.176000,6.565000,15.695000,29.38
0.100739,0.480000,-0.208000,-0.920000,49.695000,4.763000,17.695000,29.47
0.101158,0.445000,-0.258000,-0.893000,50.183000,3.832000,18.015000,29.42
0.101580,0.456000,-0.318000,-0.895000,50.260000,1.679000,19.496000,29.52
0.102002,0.416000,-0.316000,-0.859000,45.206000,-2.672000,20.412000,29.38
0.102428,0.420000,-0.323000,-0.852000,43.206000,-9.863000,19.038000,29.47
0.102854,0.417000,-0.321000,-0.823000,39.145000,-18.580000,16.351000,29.42
0.103282,0.449000,-0.356000,-0.809000,37.374000,-21.756000,15.023000,29.52
0.103708,0.427000,-0.357000,-0.778000,32.366000,-21.511000,12.534000,29.47
0.104126,0.412000,-0.344000,-0.774000,28.168000,-22.901000,8.885000,29.38
0.104553,0.394000,-0.329000,-0.772000,27.206000,-26.794000,4.824000,29.42
0.105083,0.383000,-0.339000,-0.791000,21.481000,-18.305000,0.229000,29.47
0.105534,0.385000,-0.304000,-0.797000,21.435000,-22.519000,-6.061000,29.47
0.105962,0.358000,-0.210000,-0.853000,21.099000,-21.008000,-15.405000,29.38
0.106393,0.354000,-0.078000,-0.886000,20.626000,-23.771000,-32.412000,29.42
0.106824,0.341000,0.077000,-0.979000,23.084000,-30.809000,-55.802000,29.42
0.107253,0.358000,0.240000,-1.078000,28.992000,-38.458000,-86.290000,29.47
0.107682,0.389000,0.451000,-1.141000,39.298000,-51.664000,-123.954000,29.38
0.108107,0.485000,0.548000,-1.182000,49.725000,-62.168000,-167.908000,29.42
0.108537,0.670000,0.523000,-1.188000,68.824000,-88.427000,-209.084000,29.42
0.108972,0.788000,0.530000,-1.076000,83.588000,-108.534000,-245.221000,29.47
0.109403,0.883000,0.565000,-0.958000,91.496000,-118.534000,-279.389000,29.38
0.109838,1.014000,0.336000,-0.832000,93.374000,-129.542000,-298.504000,29.42
0.110280,0.962000,0.091000,-0.638000,94.397000,-127.786000,-308.046000,29.42
0.110733,0.932000,0.026000,-0.560000,100.198000,-123.969000,-313.237000,29.42
0.111182,0.910000,-0.013000,-0.613000,98.794000,-117.588000,-313.420000,29.47
0.111646,0.896000,-0.027000,-0.651000,103.832000,-106.916000,-313.237000,29.38
0.112085,0.900000,-0.006000,-0.658000,104.779000,-104.580000,-315.359000,29.33
0.112517,0.912000,-0.009000,-0.705000,110.580000,-98.962000,-317.893000,29.42
0.112973,0.924000,-0.035000,-0.702000,116.000000,-94.366000,-319.527000,29.47
0.113432,0.965000,-0.068000,-0.692000,120.473000,-95.053000,-320.931000,29.38
0.113881,0.987000,-0.057000,-0.726000,124.061000,-96.046000,-323.496000,29.42
0.114316,1.021000,-0.074000,-0.684000,127.313000,-97.344000,-324.779000,29.47
0.114779,1.078000,-0.162000,-0.705000,132.870000,-96.611000,-324.000000,29.47
0.115272,1.164000,-0.259000,-0.783000,141.206000,-101.893000,-317.389000,29.38
0.115737,1.119000,-0.285000,-0.657000,143.878000,-111.618000,-307.847000,29.33
0.116188,0.993000,-0.282000,-0.533000,141.298000,-111.328000,-300.870000,29.42
0.116641,0.899000,-0.247000,-0.485000,135.053000,-104.885000,-299.237000,29.38
0.117077,0.883000,-0.252000,-0.551000,123.145000,-99.985000,-301.725000,29.47
0.117528,0.891000,-0.202000,-0.626000,113.542000,-93.115000,-304.305000,29.42
0.117964,0.912000,-0.233000,-0.632000,109.893000,-89.252000,-303.542000,29.52
0.118419,0.897000,-0.296000,-0.588000,110.504000,-89.771000,-299.344000,29.38
0.118891,0.870000,-0.334000,-0.566000,109.450000,-86.153000,-294.168000,29.47
0.119318,0.877000,-0.364000,-0.605000,109.466000,-79.267000,-286.641000,29.42
0.119750,0.882000,-0.397000,-0.651000,107.008000,-75.099000,-278.137000,29.52
0.120184,0.827000,-0.414000,-0.640000,103.542000,-74.183000,-270.351000,29.38
0.120630,0.762000,-0.435000,-0.589000,103.160000,-74.397000,-260.718000,29.38
0.121066,0.715000,-0.476000,-0.550000,101.008000,-69.405000,-250.672000,29.52
0.121499,0.700000,-0.545000,-0.563000,98.779000,-61.725000,-237.420000,29.33
0.121953,0.669000,-0.615000,-0.571000,94.962000,-51.511000,-222.305000,29.42
0.122401,0.630000,-0.688000,-0.565000,92.260000,-43.176000,-205.847000,29.47
0.122849,0.524000,-0.853000,-0.613000,81.038000,-39.634000,-187.511000,29.47
0.123280,0.528000,-1.062000,-0.642000,83.145000,-42.763000,-164.122000,29.42
0.123712,0.459000,-1.190000,-0.576000,69.695000,-26.824000,-132.489000,29.38
0.124137,0.395000,-1.387000,-0.486000,62.824000,-14.092000,-97.740000,29.38
0.124552,0.375000,-1.506000,-0.451000,57.099000,0.916000,-58.107000,29.38
0.124973,0.382000,-1.574000,-0.370000,46.366000,23.298000,-17.084000,29.33
0.125543,0.467000,-1.503000,-0.332000,28.489000,40.565000,7.405000,29.52
0.125967,0.471000,-0.641000,-0.677000,0.901000,34.840000,-1.466000,29.38
0.126391,0.511000,0.027000,-1.070000,-14.183000,20.611000,-11.588000,29.28
0.126828,0.438000,0.200000,-1.102000,-30.092000,-0.534000,-18.687000,29.42
0.127242,0.481000,-0.195000,-0.868000,-16.336000,1.282000,-11.145000,29.42
0.127669,0.431000,-0.462000,-0.703000,-20.901000,8.458000,-11.695000,29.47
0.128116,0.407000,-0.342000,-0.896000,-24.702000,11.481000,-17.725000,29.47
0.128563,0.528000,-0.127000,-1.075000,-29.115000,-31.878000,-15.084000,29.42
0.128993,0.375000,-0.019000,-0.885000,-27.893000,-25.389000,-13.221000,29.52
0.129404,0.552000,-0.121000,-0.987000,-25.969000,9.511000,-9.863000,29.38
0.129850,0.516000,-0.130000,-0.901000,-22.397000,25.099000,-5.252000,29.38
0.130298,0.493000,-0.153000,-0.942000,-15.313000,20.885000,-3.649000,29.47
0.130732,0.465000,-0.166000,-0.894000,-7.878000,7.496000,-1.634000,29.42
0.131150,0.500000,-0.179000,-0.875000,-1.496000,3.939000,-0.733000,29.33
0.131564,0.488000,-0.206000,-0.870000,1.603000,6.687000,0.534000,29.38
0.131990,0.472000,-0.166000,-0.848000,2.183000,10.748000,1.221000,29.47
0.132402,0.462000,-0.186000,-0.854000,4.137000,9.466000,2.092000,29.42
0.132808,0.464000,-0.225000,-0.865000,5.954000,8.947000,2.153000,29.57
0.133215,0.466000,-0.221000,-0.859000,6.015000,9.405000,1.985000,29.38
0.133627,0.454000,-0.201000,-0.878000,6.092000,14.977000,1.908000,29.47
0.134057,0.457000,-0.201000,-0.880000,7.710000,11.985000,2.122000,29.52
0.134463,0.462000,-0.209000,-0.873000,8.824000,10.870000,2.550000,29.42
0.134872,0.458000,-0.204000,-0.884000,9.878000,9.969000,2.901000,29.47
0.135314,0.467000,-0.219000,-0.858000,10.748000,9.527000,3.252000,29.38
0.135756,0.453000,-0.250000,-0.836000,10.840000,10.626000,3.252000,29.42
0.136179,0.467000,-0.262000,-0.860000,9.206000,11.374000,2.458000,29.42
0.136594,0.486000,-0.248000,-0.857000,7.878000,11.023000,2.489000,29.57
0.137006,0.487000,-0.237000,-0.854000,7.328000,10.443000,2.427000,29.47
0.137423,0.476000,-0.271000,-0.850000,5.603000,10.015000,1.679000,29.42
0.137833,0.483000,-0.258000,-0.854000,3.389000,9.710000,0.794000,29.52
0.138258,0.482000,-0.240000,-0.861000,2.611000,8.718000,0.656000,29.33
0.138687,0.481000,-0.242000,-0.854000,2.580000,7.954000,0.672000,29.38
0.139109,0.475000,-0.246000,-0.844000,2.107000,7.084000,0.260000,29.38
0.139526,0.472000,-0.248000,-0.839000,1.359000,8.351000,-0.244000,29.42
0.139936,0.474000,-0.239000,-0.842000,1.557000,7.405000,-0.504000,29.52
0.140362,0.466000,-0.247000,-0.845000,0.824000,7.954000,-0.565000,29.38
0.140774,0.470000,-0.264000,-0.842000,-0.336000,7.206000,-1.588000,29.38
0.141182,0.474000,-0.251000,-0.842000,-1.344000,6.763000,-2.290000,29.52
0.141598,0.477000,-0.244000,-0.843000,-1.786000,5.863000,-2.916000,29.47
0.142014,0.473000,-0.240000,-0.834000,-1.893000,4.168000,-2.901000,29.38
0.142454,0.471000,-0.239000,-0.842000,-1.679000,4.015000,-3.420000,29.47
0.142866,0.464000,-0.237000,-0.836000,-1.985000,3.771000,-3.817000,29.33
0.143280,0.471000,-0.233000,-0.835000,-4.275000,7.328000,-3.511000,29.42
0.143695,0.464000,-0.239000,-0.835000,-2.137000,3.954000,-4.351000,29.38
0.144119,0.470000,-0.229000,-0.839000,-2.107000,3.313000,-4.962000,29.38
0.144532,0.479000,-0.215000,-0.842000,-0.992000,2.412000,-4.626000,29.42
0.144951,0.472000,-0.227000,-0.833000,-0.397000,2.015000,-4.031000,29.52
0.145531,0.471000,-0.222000,-0.860000,0.305000,3.084000,-3.542000,29.47
0.146091,0.469000,-0.230000,-0.848000,0.794000,3.939000,-3.557000,29.28
0.146567,0.474000,-0.234000,-0.849000,1.145000,1.893000,-3.802000,29.42
0.147024,0.480000,-0.234000,-0.840000,0.916000,1.481000,-4.229000,29.42
0.147464,0.481000,-0.227000,-0.842000,0.260000,1.420000,-4.183000,29.47
0.147933,0.489000,-0.239000,-0.844000,-0.061000,1.832000,-3.710000,29.38
0.148366,0.471000,-0.223000,-0.847000,0.687000,2.519000,-3.344000,29.42
0.148782,0.478000,-0.217000,-0.854000,1.389000,3.237000,-2.366000,29.47
0.149195,0.478000,-0.229000,-0.848000,1.496000,4.092000,-1.924000,29.47
0.149606,0.466000,-0.228000,-0.840000,1.374000,4.809000,-1.710000,29.47
0.150016,0.474000,-0.232000,-0.847000,1.344000,5.160000,-1.359000,29.52
0.150440,0.486000,-0.238000,-0.847000,1.542000,5.511000,-1.221000,29.42
0.150852,0.476000,-0.237000,-0.837000,1.924000,5.359000,-0.656000,29.47
0.151273,0.475000,-0.244000,-0.841000,1.435000,5.496000,-0.809000,29.47
0.151700,0.489000,-0.244000,-0.842000,1.221000,5.496000,-0.702000,29.42
0.152110,0.490000,-0.244000,-0.843000,1.053000,5.527000,-0.794000,29.52
0.152528,0.478000,-0.246000,-0.834000,0.626000,5.160000,-1.084000,29.38
0.152951,0.487000,-0.245000,-0.845000,-0.244000,4.565000,-1.282000,29.47
0.153371,0.478000,-0.241000,-0.844000,-0.580000,3.878000,-1.313000,29.42
0.153784,0.484000,-0.243000,-0.847000,-1.221000,3.557000,-1.237000,29.42
0.154200,0.480000,-0.239000,-0.829000,-1.603000,3.679000,-1.282000,29.47
0.154625,0.486000,-0.234000,-0.847000,-1.664000,3.939000,-1.008000,29.38
0.155061,0.488000,-0.239000,-0.850000,-1.099000,2.855000,-0.916000,29.52
0.155617,0.492000,-0.236000,-0.841000,-1.008000,2.519000,-0.519000,29.42
0.156092,0.482000,-0.241000,-0.838000,-1.099000,1.985000,-0.336000,29.38
0.156520,0.477000,-0.239000,-0.837000,-1.679000,2.031000,-0.718000,29.47
0.156946,0.472000,-0.253000,-0.838000,-2.351000,1.878000,-1.252000,29.42
0.157358,0.472000,-0.250000,-0.843000,-3.282000,2.672000,-1.710000,29.42
0.157776,0.477000,-0.252000,-0.840000,-4.061000,2.870000,-2.229000,29.38
0.158194,0.479000,-0.240000,-0.838000,-4.366000,3.130000,-2.229000,29.38
0.158612,0.484000,-0.249000,-0.850000,-4.397000,4.168000,-2.000000,29.47
0.159026,0.496000,-0.280000,-0.845000,-5.466000,5.084000,-2.122000,29.42
0.159444,0.500000,-0.293000,-0.842000,-7.679000,5.023000,-3.008000,29.42
0.159860,0.494000,-0.267000,-0.845000,-9.618000,5.573000,-2.977000,29.38
0.160292,0.475000,-0.250000,-0.848000,-9.847000,5.664000,-3.053000,29.38
0.160707,0.449000,-0.278000,-0.845000,-11.176000,8.107000,-4.000000,29.42
0.161132,0.457000,-0.278000,-0.831000,-12.504000,11.252000,-5.298000,29.52
0.161564,0.452000,-0.264000,-0.841000,-13.206000,13.832000,-6.534000,29.57
0.161992,0.425000,-0.259000,-0.853000,-13.634000,17.771000,-8.565000,29.47
0.162419,0.457000,-0.270000,-0.871000,-14.382000,22.336000,-10.229000,29.42
0.162849,0.453000,-0.280000,-0.858000,-16.489000,28.427000,-12.305000,29.42
0.163297,0.393000,-0.357000,-0.834000,-18.885000,35.023000,-13.542000,29.47
0.163748,0.488000,-0.334000,-0.847000,-20.076000,48.794000,-16.137000,29.38
0.164188,0.534000,-0.329000,-0.850000,-16.870000,59.359000,-20.595000,29.42
0.164620,0.385000,-0.514000,-0.916000,4.901000,56.687000,-38.534000,29.42
0.165042,0.460000,-0.246000,-0.878000,4.626000,64.702000,-42.275000,29.52
0.165553,0.414000,0.031000,-0.998000,25.466000,80.748000,-49.573000,29.38
0.165981,0.452000,-0.012000,-1.070000,46.947000,77.756000,-58.168000,29.38
0.166409,0.426000,-0.094000,-1.011000,69.496000,77.985000,-68.534000,29.42
0.166863,0.450000,-0.202000,-1.004000,87.450000,67.863000,-80.809000,29.47
0.167299,0.506000,-0.280000,-1.024000,91.603000,59.725000,-95.725000,29.47
0.167736,0.472000,-0.309000,-0.927000,80.595000,52.641000,-105.695000,29.38
0.168172,0.506000,-0.319000,-0.898000,86.351000,42.870000,-116.687000,29.52
0.168605,0.550000,-0.395000,-0.963000,86.397000,27.740000,-123.313000,29.42
0.169032,0.355000,-0.410000,-0.889000,86.046000,5.695000,-126.336000,29.38
0.169465,0.222000,-0.581000,-1.025000,75.832000,-13.084000,-122.443000,29.47
0.169896,0.017000,-0.633000,-1.161000,58.916000,-36.855000,-114.046000,29.42
0.170339,0.163000,-0.500000,-1.005000,49.053000,-49.832000,-110.000000,29.42
0.170772,-0.038000,-0.533000,-1.108000,44.534000,-70.397000,-100.992000,29.47
0.171208,-0.052000,-0.451000,-0.952000,40.321000,-85.863000,-94.550000,29.38
0.171656,0.009000,-0.462000,-0.968000,40.031000,-87.053000,-87.191000,29.52
0.172102,0.073000,-0.470000,-0.966000,42.702000,-86.458000,-76.748000,29.52
0.172527,0.156000,-0.477000,-0.982000,46.641000,-93.069000,-63.130000,29.38
0.172956,0.188000,-0.450000,-0.940000,49.786000,-97.420000,-50.168000,29.47
0.173383,0.212000,-0.395000,-0.877000,49.771000,-97.802000,-39.145000,29.42
0.173811,0.217000,-0.327000,-0.809000,47.374000,-92.443000,-32.198000,29.42
0.174239,0.263000,-0.251000,-0.822000,45.359000,-83.252000,-29.206000,29.47
0.174663,0.351000,-0.215000,-0.885000,45.176000,-73.985000,-26.992000,29.38
0.175096,0.425000,-0.191000,-0.922000,48.626000,-69.130000,-24.076000,29.52
0.175605,0.487000,-0.189000,-0.916000,52.107000,-67.664000,-20.473000,29.42
0.176033,0.514000,-0.184000,-0.861000,50.901000,-63.588000,-19.374000,29.38
0.176461,0.500000,-0.120000,-0.744000,47.252000,-56.748000,-20.336000,29.38
0.176887,0.511000,-0.100000,-0.728000,44.534000,-43.878000,-22.580000,29.47
0.177318,0.594000,-0.125000,-0.784000,48.290000,-25.679000,-24.122000,29.42
0.177757,0.858000,-0.164000,-1.024000,59.145000,-17.786000,-17.069000,29.42
0.178184,1.059000,-0.235000,-1.165000,69.908000,-30.107000,-3.221000,29.47
0.178618,1.032000,-0.239000,-1.040000,72.076000,-38.931000,10.412000,29.38
0.179050,0.973000,-0.173000,-0.907000,63.863000,-52.321000,15.985000,29.42
0.179475,0.855000,-0.037000,-0.764000,52.916000,-67.115000,17.038000,29.42
0.179897,0.791000,0.105000,-0.598000,40.977000,-58.061000,11.664000,29.38
0.180426,0.737000,0.233000,-0.412000,-1.298000,-37.679000,-8.153000,29.38
0.180887,0.801000,0.348000,-0.396000,-16.137000,-22.550000,-18.626000,29.42
0.181321,0.807000,0.445000,-0.394000,-19.160000,-16.427000,-27.618000,29.42
0.181752,0.883000,0.372000,-0.291000,-13.282000,-0.840000,-30.977000,29.38
0.182179,0.937000,0.239000,-0.135000,-28.794000,22.275000,-38.168000,29.38
0.182602,0.963000,0.298000,-0.075000,-49.237000,38.412000,-46.443000,29.42
0.183027,1.000000,0.301000,0.027000,-74.824000,64.046000,-49.664000,29.42
0.183456,0.823000,0.857000,-0.995000,-83.618000,45.145000,-46.550000,29.47
0.183887,1.175000,-0.219000,-1.857000,-92.214000,-1.725000,-23.038000,29.38
0.184305,1.114000,-0.186000,-1.595000,27.985000,6.763000,5.664000,29.42
0.184734,0.131000,0.129000,-0.722000,21.832000,-46.366000,4.702000,29.52
0.185167,0.039000,-0.414000,-0.472000,-25.069000,-20.366000,-14.977000,29.47
0.185680,0.738000,-0.766000,-1.218000,-4.870000,5.298000,-9.573000,29.47
0.186106,0.376000,-0.014000,-0.744000,0.733000,-9.847000,-13.573000,29.47
0.186523,0.647000,-0.206000,-0.904000,0.214000,23.252000,-12.305000,29.42
0.186944,0.501000,-0.253000,-0.820000,1.405000,31.221000,-7.374000,29.52
0.187376,0.499000,-0.208000,-0.877000,5.634000,26.122000,-9.374000,29.47
0.187801,0.450000,-0.299000,-0.809000,-0.550000,31.481000,-11.115000,29.47
0.188239,0.551000,-0.341000,-0.849000,-2.000000,-26.366000,-12.855000,29.42
0.188680,0.498000,-0.252000,-0.880000,-8.947000,-7.038000,-13.573000,29.42
0.189128,0.461000,-0.182000,-0.850000,-11.466000,5.267000,-13.176000,29.47
0.189562,0.476000,-0.181000,-0.892000,-10.595000,14.275000,-12.046000,29.38
0.189990,0.510000,-0.149000,-0.886000,-5.267000,10.473000,-10.015000,29.52
0.190413,0.504000,-0.162000,-0.905000,1.725000,2.076000,-6.382000,29.52
0.190853,0.497000,-0.135000,-0.892000,6.840000,1.634000,-3.130000,29.38
0.191266,0.481000,-0.166000,-0.888000,8.962000,7.252000,-0.229000,29.47
0.191680,0.487000,-0.206000,-0.871000,9.206000,8.656000,1.206000,29.38
0.192086,0.489000,-0.206000,-0.863000,9.603000,6.748000,1.786000,29.42
0.192501,0.480000,-0.222000,-0.854000,9.985000,4.229000,2.000000,29.52
0.192919,0.474000,-0.235000,-0.853000,8.733000,4.305000,1.557000,29.38
0.193335,0.495000,-0.241000,-0.846000,6.275000,4.885000,0.702000,29.47
0.193743,0.490000,-0.236000,-0.850000,4.031000,3.420000,0.122000,29.42
0.194160,0.486000,-0.237000,-0.854000,2.015000,1.573000,-0.885000,29.47
0.194574,0.481000,-0.229000,-0.855000,0.641000,1.969000,-1.481000,29.47
0.194994,0.491000,-0.201000,-0.867000,0.794000,-0.397000,-1.237000,29.38
0.195525,0.480000,-0.206000,-0.863000,0.733000,3.527000,-0.550000,29.42
0.196118,0.475000,-0.197000,-0.871000,1.511000,2.840000,0.260000,29.42
0.196600,0.479000,-0.208000,-0.872000,2.000000,3.145000,0.641000,29.38
0.197114,0.480000,-0.223000,-0.858000,2.260000,4.000000,1.023000,29.47
0.197539,0.480000,-0.229000,-0.855000,1.939000,4.153000,1.023000,29.52
0.197952,0.476000,-0.226000,-0.854000,1.420000,3.450000,0.565000,29.42
0.198365,0.480000,-0.233000,-0.850000,0.626000,3.985000,0.366000,29.38
0.198778,0.476000,-0.227000,-0.855000,-0.031000,2.611000,0.137000,29.38
0.199195,0.465000,-0.235000,-0.850000,-0.550000,2.336000,-0.290000,29.52
0.199614,0.463000,-0.228000,-0.845000,-1.328000,1.771000,-0.580000,29.52
0.200034,0.465000,-0.221000,-0.846000,-2.321000,2.168000,-1.328000,29.47
0.200505,0.476000,-0.222000,-0.848000,-2.550000,1.863000,-1.511000,29.38
0.200947,0.467000,-0.212000,-0.850000,-1.802000,1.466000,-1.603000,29.47
0.201383,0.467000,-0.228000,-0.849000,-2.275000,2.397000,-1.710000,29.42
0.201817,0.471000,-0.226000,-0.843000,-2.809000,2.351000,-1.756000,29.42
0.202252,0.472000,-0.223000,-0.855000,-2.947000,1.573000,-2.000000,29.47
0.202675,0.476000,-0.221000,-0.842000,-3.069000,1.695000,-1.710000,29.47
0.203105,0.468000,-0.215000,-0.835000,-3.618000,0.672000,-1.924000,29.52
0.203545,0.468000,-0.217000,-0.847000,-4.031000,0.275000,-2.122000,29.38
0.203976,0.470000,-0.215000,-0.849000,-4.076000,0.382000,-1.985000,29.47
0.204411,0.475000,-0.210000,-0.854000,-3.756000,0.092000,-1.710000,29.47
0.204861,0.480000,-0.213000,-0.843000,-3.679000,0.076000,-1.496000,29.42
0.205436,0.475000,-0.215000,-0.853000,-3.710000,-0.244000,-1.298000,29.42
0.206042,0.483000,-0.205000,-0.864000,-3.191000,-0.382000,-0.763000,29.47
0.206489,0.492000,-0.203000,-0.875000,-2.504000,0.794000,0.168000,29.47
0.206934,0.484000,-0.231000,-0.866000,-2.641000,0.916000,0.672000,29.42
0.207377,0.478000,-0.246000,-0.846000,-4.366000,1.115000,0.153000,29.33
0.207818,0.457000,-0.219000,-0.847000,-5.481000,0.733000,-0.489000,29.38
0.208254,0.438000,-0.220000,-0.843000,-5.863000,1.496000,-1.023000,29.38
0.208696,0.451000,-0.246000,-0.850000,-7.038000,2.702000,-2.122000,29.52
0.209140,0.466000,-0.233000,-0.847000,-8.519000,2.901000,-3.160000,29.42
0.209580,0.461000,-0.219000,-0.858000,-8.824000,2.382000,-3.771000,29.47
0.210025,0.455000,-0.212000,-0.860000,-8.611000,3.206000,-3.740000,29.38
0.210537,0.472000,-0.203000,-0.856000,-8.504000,2.992000,-3.817000,29.42
0.211009,0.473000,-0.202000,-0.856000,-8.427000,3.435000,-3.618000,29.47
0.211438,0.472000,-0.200000,-0.860000,-7.679000,2.641000,-3.099000,29.38
0.211861,0.474000,-0.194000,-0.860000,-7.053000,2.061000,-2.656000,29.47
0.212285,0.470000,-0.191000,-0.862000,-6.565000,1.924000,-2.092000,29.42
0.212709,0.475000,-0.198000,-0.858000,-6.000000,1.939000,-1.588000,29.42
0.213128,0.468000,-0.200000,-0.861000,-5.344000,1.389000,-1.252000,29.47
0.213558,0.471000,-0.202000,-0.861000,-5.237000,0.550000,-1.099000,29.38
0.213977,0.475000,-0.201000,-0.864000,-5.053000,-0.718000,-1.252000,29.42
0.214399,0.476000,-0.199000,-0.861000,-5.038000,-1.389000,-1.038000,29.52
0.214821,0.486000,-0.198000,-0.863000,-4.626000,-1.771000,-0.687000,29.47
0.215252,0.494000,-0.203000,-0.874000,-4.794000,-2.809000,0.168000,29.47
0.215796,0.494000,-0.209000,-0.861000,-5.221000,-3.679000,0.840000,29.38
0.216320,0.508000,-0.222000,-0.882000,-4.947000,-5.374000,1.511000,29.52
0.216809,0.486000,-0.241000,-0.875000,-5.618000,-5.191000,1.664000,29.42
0.217298,0.498000,-0.258000,-0.874000,-6.366000,-5.282000,1.893000,29.28
0.217751,0.515000,-0.244000,-0.894000,-4.427000,-5.221000,2.611000,29.38
0.218197,0.514000,-0.260000,-0.887000,-2.397000,-6.198000,3.252000,29.42
0.218640,0.490000,-0.283000,-0.870000,-2.656000,-7.206000,3.557000,29.52
0.219112,0.495000,-0.287000,-0.866000,-2.504000,-7.847000,3.618000,29.47
0.219554,0.475000,-0.278000,-0.867000,-3.160000,-9.817000,3.939000,29.47
0.219969,0.477000,-0.279000,-0.896000,-3.496000,-10.046000,5.344000,29.42
0.220402,0.458000,-0.239000,-0.915000,-2.672000,-7.130000,7.634000,29.47
0.220815,0.460000,-0.207000,-0.947000,-0.809000,1.802000,8.901000,29.47
0.221222,0.412000,-0.283000,-0.932000,-2.046000,5.053000,8.626000,29.47
0.221633,0.335000,-0.469000,-0.756000,-11.206000,10.458000,4.870000,29.33
0.222066,0.351000,-0.722000,-0.776000,-18.351000,16.427000,18.427000,29.33
0.222506,0.609000,-1.107000,-0.840000,-39.252000,15.664000,44.351000,29.47
0.222925,0.535000,-1.208000,-0.583000,-55.771000,28.015000,75.695000,29.47
0.223347,0.444000,-0.975000,-0.559000,-63.511000,29.725000,105.618000,29.52
0.223767,0.554000,-0.360000,-0.613000,-37.847000,45.802000,125.389000,29.42
0.224183,0.138000,-0.739000,-0.262000,8.885000,60.397000,144.397000,29.38
0.224602,0.562000,-0.744000,-0.691000,32.550000,77.649000,157.832000,29.47
0.225021,0.297000,-0.592000,-0.622000,21.374000,79.893000,159.069000,29.42
0.225533,0.377000,-0.272000,-0.832000,9.817000,85.115000,151.863000,29.42
0.226132,0.337000,0.055000,-0.946000,2.427000,76.214000,134.183000,29.38
0.226594,0.314000,0.223000,-1.045000,-7.649000,59.954000,105.740000,29.47
0.227049,0.356000,0.268000,-1.126000,-38.260000,34.489000,61.191000,29.38
0.227488,0.324000,1.156000,-1.199000,-43.908000,3.496000,22.046000,29.42
0.227950,0.277000,0.469000,-1.161000,-39.664000,15.115000,-16.443000,29.52
0.228402,0.380000,0.224000,-1.114000,-11.176000,-46.565000,-45.954000,29.47
0.228852,0.389000,0.057000,-0.895000,-10.229000,-49.344000,-66.840000,29.47
0.229300,0.393000,0.005000,-0.790000,-10.733000,-43.191000,-78.198000,29.42
0.229746,0.446000,-0.009000,-0.662000,-19.924000,-30.489000,-92.901000,29.38
0.230231,0.675000,0.233000,-0.566000,-39.695000,-13.863000,-107.847000,29.38
0.230784,0.929000,0.840000,-0.558000,-50.382000,-7.328000,-119.282000,29.38
0.231292,0.749000,0.796000,-0.786000,-45.435000,-12.977000,-109.985000,29.42
0.231744,0.902000,0.079000,-1.319000,-19.679000,-3.481000,-77.069000,29.52
0.232183,0.985000,-0.504000,-1.204000,2.809000,-7.542000,-27.344000,29.38
0.232626,0.362000,-0.303000,-0.477000,5.710000,-6.137000,-0.046000,29.38
0.233065,0.452000,0.023000,-1.147000,16.214000,-12.916000,4.824000,29.52
0.233505,0.379000,0.004000,-0.988000,21.466000,-24.672000,5.053000,29.42
0.233932,0.402000,-0.414000,-0.752000,9.847000,5.511000,1.802000,29.42
0.234364,0.494000,-0.451000,-0.776000,5.695000,12.290000,0.931000,29.38
0.234796,0.494000,-0.225000,-0.863000,3.466000,2.153000,-0.153000,29.38
0.235228,0.504000,-0.235000,-0.898000,3.389000,1.695000,-0.076000,29.42
0.235660,0.476000,-0.266000,-0.852000,-0.168000,5.221000,-0.947000,29.42
0.236109,0.454000,-0.278000,-0.838000,-4.015000,5.664000,-4.137000,29.57
0.236571,0.470000,-0.303000,-0.828000,-7.802000,3.710000,-6.962000,29.47
0.237009,0.500000,-0.270000,-0.822000,-11.405000,2.595000,-9.588000,29.42
0.237425,0.490000,-0.187000,-0.862000,-12.565000,1.405000,-10.275000,29.42
0.237844,0.490000,-0.117000,-0.854000,-9.405000,-2.763000,-9.817000,29.47
0.238269,0.465000,-0.120000,-0.866000,-4.733000,-3.649000,-8.122000,29.38
0.238690,0.451000,-0.091000,-0.886000,-0.092000,-2.763000,-6.092000,29.42
0.239100,0.455000,-0.118000,-0.895000,5.832000,-0.046000,-2.916000,29.47
0.239503,0.458000,-0.112000,-0.892000,10.840000,3.038000,0.046000,29.47
0.239910,0.468000,-0.132000,-0.881000,14.947000,4.122000,2.626000,29.38
0.240314,0.480000,-0.173000,-0.878000,15.969000,6.092000,4.595000,29.42
0.240743,0.463000,-0.186000,-0.858000,13.160000,3.832000,4.198000,29.42
0.241146,0.466000,-0.250000,-0.865000,8.489000,2.504000,3.099000,29.38
0.241560,0.508000,-0.246000,-0.854000,5.679000,0.397000,1.939000,29.38
0.241973,0.488000,-0.242000,-0.853000,2.733000,-1.618000,1.130000,29.42
0.242390,0.486000,-0.261000,-0.855000,-0.321000,-3.969000,-0.275000,29.42
0.242806,0.469000,-0.248000,-0.857000,-3.359000,-5.053000,-1.511000,29.47
0.243226,0.461000,-0.215000,-0.871000,-5.557000,-3.969000,-1.756000,29.38
0.243645,0.473000,-0.213000,-0.888000,-5.817000,-1.603000,-1.374000,29.52
0.244064,0.468000,-0.184000,-0.887000,-4.198000,0.031000,-0.947000,29.33
0.244481,0.459000,-0.194000,-0.885000,-2.626000,0.870000,-0.321000,29.47
0.244890,0.445000,-0.198000,-0.874000,-1.679000,2.412000,0.290000,29.47
0.245300,0.457000,-0.208000,-0.867000,-2.183000,3.863000,0.290000,29.52
0.245713,0.458000,-0.207000,-0.860000,-2.763000,4.992000,0.092000,29.52
0.246122,0.458000,-0.223000,-0.861000,-3.344000,3.802000,-0.550000,29.47
0.246668,0.458000,-0.237000,-0.860000,-4.611000,2.977000,-1.542000,29.38
0.247229,0.465000,-0.223000,-0.849000,-5.847000,3.847000,-2.443000,29.42
0.247657,0.446000,-0.203000,-0.848000,-5.878000,3.389000,-2.962000,29.42
0.248064,0.451000,-0.206000,-0.865000,-5.527000,3.924000,-3.115000,29.47
0.248481,0.460000,-0.190000,-0.863000,-4.901000,5.145000,-2.977000,29.47
0.248893,0.455000,-0.178000,-0.866000,-4.076000,5.313000,-2.458000,29.38
0.249302,0.538000,-0.246000,-0.890000,-4.244000,5.450000,0.214000,29.42
0.249707,0.529000,-0.218000,-0.901000,1.420000,3.649000,0.641000,29.42
0.250121,0.543000,-0.134000,-0.934000,11.740000,4.458000,3.420000,29.47
0.250531,0.506000,-0.200000,-0.912000,24.260000,0.046000,7.832000,29.38
0.250948,0.472000,-0.176000,-0.852000,27.282000,-3.023000,9.359000,29.42
0.251359,0.449000,-0.179000,-0.890000,29.160000,-5.328000,10.336000,29.42
0.251779,0.476000,-0.193000,-0.903000,31.817000,-4.198000,12.031000,29.47
0.252197,0.501000,-0.176000,-0.910000,39.176000,-3.573000,15.328000,29.57
0.252626,0.454000,-0.204000,-0.870000,43.084000,-5.832000,17.053000,29.42
0.253049,0.426000,-0.239000,-0.833000,39.344000,-9.924000,15.817000,29.42
0.253466,0.346000,-0.305000,-0.786000,31.267000,-8.687000,11.695000,29.47
0.253885,0.326000,-0.325000,-0.708000,20.763000,-1.053000,6.565000,29.47
0.254294,0.307000,-0.377000,-0.749000,6.595000,6.672000,0.351000,29.42
0.254714,0.359000,-0.320000,-0.726000,-8.794000,9.038000,-4.626000,29.47
0.255130,0.345000,-0.343000,-0.720000,-22.840000,13.420000,-9.634000,29.47
0.255562,0.295000,-0.305000,-0.778000,-39.817000,14.916000,-17.511000,29.47
0.255989,0.426000,-0.318000,-0.884000,-51.328000,14.046000,-22.580000,29.52
0.256412,0.416000,-0.231000,-0.836000,-59.679000,15.939000,-25.664000,29.42
0.256923,0.348000,-0.257000,-0.842000,-66.000000,14.107000,-30.031000,29.47
0.257528,0.405000,-0.173000,-0.926000,-65.710000,10.397000,-32.015000,29.47
0.258047,0.619000,-0.302000,-0.956000,-64.061000,19.221000,-32.397000,29.42
0.258521,0.537000,-0.224000,-0.977000,-63.878000,23.756000,-33.863000,29.42
0.258980,0.527000,-0.159000,-0.887000,-53.099000,9.878000,-30.748000,29.47
0.259429,0.551000,-0.083000,-0.925000,-42.534000,8.473000,-25.756000,29.47
0.259884,0.536000,-0.114000,-0.882000,-34.107000,8.870000,-21.191000,29.42
0.260335,0.533000,-0.100000,-0.881000,-27.374000,8.183000,-17.710000,29.42
0.260782,0.521000,-0.088000,-0.877000,-22.290000,7.252000,-15.130000,29.47
0.261225,0.505000,-0.094000,-0.878000,-18.015000,6.672000,-12.733000,29.47
0.261669,0.519000,-0.095000,-0.887000,-13.282000,5.420000,-10.534000,29.52
0.262115,0.522000,-0.089000,-0.866000,-10.092000,6.305000,-7.649000,29.42
0.262606,0.502000,-0.077000,-0.878000,-6.641000,6.855000,-5.405000,29.47
0.263050,0.517000,-0.083000,-0.867000,-2.321000,6.611000,-3.252000,29.47
0.263476,0.520000,-0.057000,-0.866000,2.427000,6.183000,-0.321000,29.42
0.263894,0.510000,-0.064000,-0.865000,7.344000,4.885000,2.260000,29.42
0.264313,0.499000,-0.082000,-0.849000,10.412000,3.863000,3.817000,29.47
0.264999,0.508000,-0.117000,-0.863000,11.924000,3.023000,4.504000,29.38
0.265484,0.510000,-0.139000,-0.857000,13.740000,0.992000,5.542000,29.42
0.265933,0.487000,-0.124000,-0.854000,15.267000,-1.069000,6.733000,29.52
0.266381,0.476000,-0.145000,-0.855000,15.847000,-3.649000,7.313000,29.28
0.266822,0.495000,-0.137000,-0.872000,17.756000,-4.244000,8.916000,29.47
0.267322,0.521000,-0.134000,-0.898000,22.565000,-3.282000,11.878000,29.38
0.267808,0.571000,-0.101000,-0.916000,32.153000,-5.221000,16.748000,29.42
0.268268,0.567000,-0.114000,-0.903000,43.099000,-7.176000,22.046000,29.42
0.268731,0.540000,-0.185000,-0.899000,49.786000,-10.870000,26.519000,29.47
0.269174,0.494000,-0.178000,-0.912000,56.626000,-16.397000,29.328000,29.47
0.269601,0.591000,-0.250000,-1.009000,65.435000,-17.206000,33.008000,29.42
0.270031,0.511000,-0.244000,-0.992000,66.412000,-15.160000,33.786000,29.42
0.270462,0.498000,-0.367000,-0.920000,69.221000,-19.603000,33.786000,29.47
0.270888,0.578000,-0.363000,-1.013000,71.267000,-10.656000,33.664000,29.47
0.271320,0.289000,-0.312000,-0.767000,59.802000,-11.557000,26.412000,29.52
0.271744,0.255000,-0.622000,-0.892000,42.565000,1.466000,15.450000,29.38
0.272166,0.023000,-0.595000,-0.693000,20.809000,15.725000,3.496000,29.47
0.272601,0.008000,-0.517000,-0.708000,-7.038000,33.466000,-11.603000,29.47
0.273035,-0.019000,-0.503000,-0.683000,-28.702000,46.763000,-30.595000,29.42
0.273462,0.069000,-0.596000,-0.709000,-48.794000,91.878000,-51.130000,29.42
0.273889,0.282000,-0.628000,-1.286000,-11.496000,104.595000,-71.191000,29.38
0.274312,-0.434000,-1.076000,-1.863000,2.076000,90.947000,-40.550000,29.38
0.274725,0.173000,-2.168000,-1.510000,8.458000,66.107000,3.634000,29.42
0.275152,-0.742000,-1.946000,-1.066000,-35.237000,75.481000,34.641000,29.42
0.275577,-0.712000,-0.931000,-1.068000,-30.901000,57.832000,52.031000,29.47
0.276013,-0.809000,-0.608000,-1.125000,-13.374000,55.252000,52.412000,29.47
0.276440,-0.780000,-0.675000,-1.162000,-13.038000,67.740000,41.679000,29.52
0.276868,-0.583000,-0.582000,-1.407000,-14.031000,47.496000,26.550000,29.52
0.284854,-0.586000,-0.336000,-1.479000,5.695000,44.656000,22.626000,29.38
0.294812,-0.362000,-0.399000,-1.499000,9.435000,-20.366000,15.420000,29.47
0.304902,-0.392000,-0.373000,-1.289000,5.618000,-18.336000,11.557000,29.42
0.314831,-0.204000,-0.316000,-1.337000,3.893000,-40.824000,9.267000,29.42
0.324841,0.025000,-0.296000,-1.473000,12.046000,-58.214000,14.992000,29.47
0.334871,0.138000,-0.335000,-1.432000,15.664000,-67.374000,22.519000,29.47
0.344937,0.196000,-0.280000,-1.266000,11.695000,-84.107000,30.336000,29.42
0.354895,0.188000,-0.199000,-1.068000,4.779000,-94.641000,36.641000,29.42
0.364908,0.221000,-0.150000,-0.961000,-3.160000,-92.366000,42.336000,29.47
0.374945,0.260000,-0.127000,-0.859000,-12.122000,-81.191000,48.305000,29.47
0.384919,0.271000,-0.080000,-0.778000,-23.527000,-67.466000,53.298000,29.47
0.394916,0.304000,-0.009000,-0.734000,-30.458000,-55.573000,57.099000,29.52
0.405034,0.391000,0.016000,-0.847000,-34.962000,-46.595000,56.504000,29.42
0.414943,0.509000,0.070000,-0.990000,-34.000000,-42.336000,53.527000,29.38
0.424950,0.577000,0.114000,-1.109000,-27.130000,-44.687000,47.878000,29.47
0.434979,0.641000,0.113000,-1.108000,-17.573000,-52.107000,40.840000,29.42
0.445030,0.708000,0.047000,-1.104000,-7.817000,-65.038000,33.145000,29.42
0.454935,0.690000,0.017000,-0.966000,-5.664000,-78.824000,24.275000,29.47
0.464862,0.684000,-0.017000,-0.915000,-5.252000,-83.328000,13.481000,29.47
0.474848,0.718000,-0.035000,-0.850000,-2.580000,-82.382000,5.176000,29.42
0.484898,0.739000,-0.114000,-0.782000,2.046000,-78.000000,-0.565000,29.42
0.494859,0.715000,-0.127000,-0.666000,7.588000,-73.863000,-5.008000,29.38
0.504901,0.698000,-0.126000,-0.555000,12.305000,-66.015000,-8.321000,29.38
0.514874,0.714000,-0.115000,-0.489000,15.969000,-52.107000,-11.221000,29.42
0.524885,0.729000,-0.088000,-0.439000,19.099000,-40.092000,-14.275000,29.47
0.534840,0.801000,-0.090000,-0.542000,25.557000,-26.809000,-17.008000,29.38
0.544878,0.964000,-0.066000,-0.745000,37.954000,-24.687000,-14.656000,29.47
0.554979,1.093000,-0.015000,-0.737000,46.763000,-33.847000,-11.649000,29.52
0.564889,1.066000,-0.016000,-0.668000,43.954000,-48.107000,-14.916000,29.33
0.574905,1.015000,0.045000,-0.457000,37.863000,-50.031000,-23.160000,29.47
0.584897,1.071000,0.077000,-0.394000,19.664000,-48.702000,-35.649000,29.38
0.594928,1.247000,-0.081000,-0.446000,13.634000,-47.939000,-38.031000,29.42
0.604893,1.420000,-0.283000,-0.422000,4.290000,-54.504000,-30.458000,29.42
0.614871,0.704000,-0.144000,0.145000,10.947000,-34.702000,-11.786000,29.38
0.624915,1.913000,-0.282000,1.445000,-2.931000,25.298000,8.779000,29.47
0.634819,2.162000,-0.445000,2.083000,-4.000000,122.733000,25.420000,29.42
0.644859,1.371000,-1.112000,-0.249000,18.626000,170.794000,54.718000,29.42
0.654907,0.965000,-1.078000,-2.279000,-5.817000,112.962000,76.046000,29.42
0.664899,-0.038000,0.328000,-2.130000,-27.664000,64.153000,16.733000,29.47
0.674882,-0.354000,1.184000,-1.601000,-14.031000,65.511000,-40.992000,29.47
0.684905,0.635000,0.577000,-1.533000,13.710000,76.687000,-53.267000,29.42
0.694921,1.109000,-0.323000,-1.610000,21.557000,65.237000,-41.878000,29.33
0.704943,0.744000,-0.323000,-1.153000,22.412000,61.160000,-31.908000,29.47
0.714906,0.523000,-0.068000,-1.066000,34.168000,76.229000,-34.183000,29.47
0.724946,0.284000,0.130000,-0.914000,5.084000,140.550000,-37.863000,29.33
0.734944,0.668000,-0.081000,-1.153000,62.885000,-38.000000,-25.511000,29.38
0.744998,0.776000,-0.851000,-0.905000,41.420000,10.855000,-14.229000,29.47
0.755110,0.634000,-0.759000,-0.817000,28.198000,17.176000,-6.458000,29.47
0.764929,0.530000,-0.447000,-0.985000,8.107000,57.435000,-4.931000,29.42
0.774934,0.519000,-0.445000,-0.859000,9.389000,28.321000,-6.076000,29.42
0.784934,0.476000,-0.659000,-0.783000,-2.427000,11.282000,-9.893000,29.38
0.795026,0.332000,-0.658000,-0.655000,-19.679000,7.298000,-15.084000,29.47
0.805069,0.274000,-0.623000,-0.640000,-40.183000,11.649000,-21.023000,29.42
0.815043,0.339000,-0.528000,-0.723000,-53.679000,16.351000,-25.328000,29.42
0.825015,0.342000,-0.439000,-0.733000,-71.176000,34.061000,-29.221000,29.57
0.835106,0.361000,-0.405000,-0.817000,-84.687000,34.718000,-32.840000,29.47
0.845046,0.434000,-0.295000,-0.944000,-82.687000,16.443000,-34.626000,29.33
0.855149,0.455000,-0.237000,-0.981000,-76.916000,15.115000,-33.237000,29.42
0.865089,0.502000,-0.098000,-1.042000,-59.405000,16.947000,-29.221000,29.47
0.875074,0.478000,-0.254000,-0.910000,-48.443000,23.603000,-26.580000,29.47
0.885030,0.405000,-0.199000,-0.885000,-42.260000,17.878000,-26.290000,29.42
0.895191,0.407000,-0.184000,-0.869000,-36.122000,22.153000,-26.779000,29.42
0.905288,0.488000,-0.314000,-0.834000,-34.901000,19.130000,-27.313000,29.47
0.915259,0.456000,-0.216000,-0.911000,-35.679000,25.023000,-27.985000,29.47
0.925200,0.432000,-0.224000,-0.864000,-34.214000,22.229000,-28.107000,29.42
0.935204,0.473000,-0.215000,-0.885000,-32.656000,22.840000,-28.183000,29.33
0.945198,0.439000,-0.163000,-0.881000,-31.649000,26.336000,-28.046000,29.38
0.955479,0.427000,-0.190000,-0.854000,-28.809000,27.542000,-29.649000,29.47
0.965368,0.422000,-0.212000,-0.879000,-27.099000,34.702000,-32.260000,29.42
0.975469,0.448000,-0.193000,-0.877000,-23.832000,38.137000,-33.740000,29.42
0.985434,0.489000,-0.114000,-0.917000,-20.107000,43.221000,-34.366000,29.47
0.995319,0.507000,-0.195000,-0.879000,-15.695000,47.328000,-35.664000,29.47
1.005468,0.484000,0.202000,-1.085000,4.702000,45.603000,-49.069000,29.42
1.015377,0.441000,-0.077000,-0.854000,-18.473000,68.275000,-32.702000,29.52
1.025281,0.535000,-0.245000,-0.883000,-12.702000,74.809000,-29.725000,29.38
1.034983,0.475000,-0.150000,-0.918000,-13.466000,88.687000,-28.366000,29.47
1.044935,0.549000,-0.204000,-0.921000,-14.656000,112.366000,-23.649000,29.52
1.054978,0.440000,-0.174000,-0.900000,-19.313000,133.252000,-27.893000,29.42
1.064862,0.471000,-0.152000,-0.884000,-19.267000,153.756000,-29.405000,29.47
1.074861,0.429000,-0.134000,-0.834000,-18.870000,181.588000,-39.206000,29.47
1.084921,0.358000,-0.096000,-0.822000,-18.458000,204.427000,-50.931000,29.42
1.094912,0.461000,-0.067000,-0.868000,-23.282000,228.718000,-59.267000,29.52
1.105000,0.488000,-0.044000,-0.865000,-19.374000,239.817000,-63.435000,29.47
1.114876,0.469000,-0.100000,-0.900000,-21.344000,253.802000,-72.779000,29.38
1.125248,0.437000,-0.147000,-0.836000,-45.985000,266.748000,-93.405000,29.47
1.136761,0.677000,-0.153000,-0.823000,-63.359000,307.466000,-112.122000,29.42
1.145711,0.143000,-0.151000,-0.904000,-61.435000,310.733000,-118.168000,29.52
1.156109,1.428000,-0.478000,-1.420000,-33.771000,343.802000,-127.908000,29.47
1.164870,1.580000,-0.685000,-1.529000,38.504000,376.183000,-119.511000,29.38
1.174827,1.936000,-0.427000,-1.981000,79.847000,388.947000,-114.672000,29.42
1.184855,2.278000,-0.360000,-2.146000,45.710000,443.191000,-143.115000,29.42
1.194868,2.066000,-0.588000,-2.305000,0.916000,453.527000,-180.458000,29.38
1.205040,2.164000,-0.772000,-2.849000,-22.366000,393.481000,-182.046000,29.47
1.214956,0.475000,-1.293000,-3.481000,-14.885000,273.985000,-143.252000,29.42
1.224922,-0.647000,-3.256000,-3.718000,57.908000,110.214000,-48.153000,29.42
1.234868,1.561000,-3.000000,-4.000000,-19.405000,41.695000,-9.756000,29.38
1.244943,-0.846000,-2.253000,-2.105000,-83.603000,-231.817000,18.916000,29.47
1.254986,-0.896000,-1.141000,-1.660000,-98.351000,-232.779000,24.321000,29.52
1.264997,-0.694000,-0.650000,-1.878000,-52.641000,-207.221000,30.107000,29.42
1.274998,-0.603000,-0.635000,-1.576000,4.641000,-203.573000,33.725000,29.52
1.285090,-0.435000,-0.802000,-1.430000,17.908000,-205.832000,25.634000,29.47
1.295103,-0.257000,-0.785000,-1.215000,8.351000,-227.084000,12.076000,29.47
1.305176,-0.062000,-0.582000,-1.158000,2.489000,-256.611000,-1.832000,29.42
1.315128,0.170000,-0.387000,-1.183000,16.244000,-256.947000,-5.695000,29.47
1.325166,0.437000,-0.375000,-1.125000,45.786000,-277.130000,-0.198000,29.38
1.335109,0.530000,-0.466000,-1.018000,66.718000,-275.481000,8.672000,29.38
1.345210,0.670000,-0.565000,-0.917000,74.977000,-266.275000,19.908000,29.42
1.355068,0.800000,-0.612000,-0.850000,77.374000,-266.351000,37.725000,29.42
1.365191,0.832000,-0.598000,-0.831000,79.847000,-260.076000,58.305000,29.47
1.375383,0.919000,-0.507000,-0.868000,83.328000,-246.718000,80.321000,29.47
1.385313,0.976000,-0.364000,-0.952000,95.771000,-233.771000,100.214000,29.42
1.395251,1.052000,-0.198000,-1.019000,112.244000,-225.252000,112.534000,29.42
1.405358,1.180000,-0.187000,-1.096000,120.565000,-226.412000,113.634000,29.47
1.415296,1.353000,-0.137000,-1.133000,119.466000,-226.443000,116.137000,29.47
1.425283,1.485000,-0.065000,-1.070000,113.374000,-230.534000,120.763000,29.52
1.435280,1.569000,0.023000,-1.029000,114.260000,-231.008000,128.321000,29.42
1.445454,1.657000,0.138000,-0.978000,116.626000,-223.191000,139.344000,29.47
1.455333,1.753000,0.272000,-0.946000,119.649000,-209.817000,147.206000,29.47
1.465317,1.898000,0.468000,-0.906000,125.710000,-196.809000,150.244000,29.52
1.475176,1.984000,0.615000,-0.852000,130.260000,-185.786000,145.328000,29.47
1.485175,2.157000,0.808000,-0.827000,133.084000,-181.191000,134.855000,29.38
1.495327,2.292000,0.929000,-0.777000,131.511000,-163.008000,122.198000,29.47
1.505360,2.381000,0.994000,-0.671000,126.565000,-158.656000,111.527000,29.52
1.515184,2.514000,0.951000,-0.610000,111.344000,-149.511000,102.107000,29.42
1.525130,2.561000,0.855000,-0.466000,89.389000,-137.176000,92.595000,29.38
1.534992,2.510000,0.864000,-0.103000,60.366000,-130.885000,79.939000,29.47
1.544941,2.459000,0.867000,0.135000,28.412000,-111.130000,60.656000,29.42
1.554930,2.380000,0.910000,0.251000,5.252000,-95.725000,44.183000,29.52
1.564847,2.340000,0.896000,0.331000,-9.481000,-67.893000,32.260000,29.47
1.574837,3.568000,1.225000,0.936000,24.092000,5.756000,-1.359000,29.47
1.584842,2.020000,0.242000,1.207000,54.992000,-18.321000,16.840000,29.47
1.594816,2.389000,0.563000,1.262000,-43.878000,48.321000,27.237000,29.42
1.604841,2.791000,0.845000,1.111000,-71.878000,134.031000,22.748000,29.42
1.614812,0.894000,0.504000,0.503000,-28.519000,150.733000,36.611000,29.38
1.624847,1.273000,0.145000,-1.935000,-26.779000,146.153000,40.580000,29.47
1.634803,0.283000,-0.154000,-2.261000,-52.748000,84.412000,7.695000,29.42
1.645979,-0.284000,0.309000,-1.403000,-17.847000,66.626000,-49.832000,29.42
1.658500,0.237000,0.114000,-0.734000,6.947000,93.924000,-71.099000,29.38
1.664812,0.980000,0.069000,-1.138000,13.221000,122.275000,-68.840000,29.47
1.674796,1.278000,0.109000,-1.891000,6.718000,51.954000,-56.122000,29.52
1.689836,0.841000,0.077000,-1.836000,41.511000,98.290000,-75.725000,29.47
1.694781,0.955000,-0.426000,-1.357000,-3.603000,96.763000,-59.588000,29.38
1.709244,0.705000,-0.458000,-0.992000,11.618000,88.458000,-41.038000,29.47
1.714787,0.720000,-0.441000,-1.033000,12.427000,71.313000,-28.779000,29.42
1.724839,0.622000,-0.409000,-0.974000,6.275000,59.115000,-21.893000,29.42
1.734814,0.562000,-0.584000,-0.826000,-5.359000,63.802000,-19.756000,29.47
1.749080,0.517000,-0.534000,-0.843000,-15.481000,42.611000,-22.947000,29.38
1.757110,0.568000,-0.672000,-0.556000,-31.405000,70.733000,-26.092000,29.42
1.766778,0.422000,-0.438000,-0.760000,-30.351000,-41.817000,-25.985000,29.42
1.774862,0.365000,-0.498000,-0.801000,-46.641000,-21.038000,-28.092000,29.38
1.784837,0.319000,-0.472000,-0.757000,-68.565000,30.565000,-32.748000,29.38
1.795681,0.469000,-0.349000,-0.946000,-74.107000,36.229000,-36.397000,29.42
1.805003,0.512000,-0.282000,-0.962000,-67.588000,18.137000,-35.649000,29.52
1.816315,0.509000,-0.275000,-1.019000,-57.420000,3.389000,-33.802000,29.38
1.824833,0.473000,-0.212000,-0.901000,-49.588000,0.855000,-32.412000,29.47
1.837454,0.485000,-0.357000,-0.868000,-45.115000,2.229000,-32.962000,29.52
1.844864,0.478000,-0.310000,-0.878000,-42.458000,-0.015000,-34.183000,29.42
1.858899,0.449000,-0.257000,-0.902000,-37.221000,10.870000,-33.893000,29.42
1.864818,0.457000,-0.278000,-0.862000,-36.076000,12.733000,-35.313000,29.47
1.879517,0.420000,-0.289000,-0.853000,-35.908000,4.397000,-38.443000,29.38
1.888219,0.426000,-0.253000,-0.845000,-39.069000,12.794000,-40.672000,29.52
1.897978,0.458000,-0.196000,-0.850000,-41.069000,16.565000,-39.435000,29.47
1.906468,0.465000,-0.120000,-0.858000,-40.397000,25.008000,-37.389000,29.38
1.915977,0.467000,-0.152000,-0.878000,-35.664000,29.450000,-34.992000,29.47
1.924828,0.432000,-0.141000,-0.889000,-31.450000,35.527000,-32.947000,29.33
1.935594,0.469000,-0.135000,-0.863000,-27.282000,39.618000,-33.511000,29.42
1.944880,0.520000,-0.138000,-0.892000,-23.954000,45.725000,-35.145000,29.38
1.954887,0.519000,-0.503000,-0.798000,-22.046000,57.237000,-34.611000,29.47
1.966929,0.501000,0.064000,-0.953000,-20.504000,68.656000,-31.237000,29.52
1.974811,0.508000,-0.131000,-0.865000,-17.176000,71.191000,-26.931000,29.33
1.984799,0.483000,-0.080000,-0.915000,-15.725000,90.427000,-23.176000,29.47
2.007982,0.505000,-0.069000,-0.896000,-12.046000,101.115000,-18.122000,29.38
2.008553,0.463000,-0.094000,-0.893000,-8.229000,121.908000,-16.916000,29.42
2.014859,0.455000,-0.162000,-0.895000,-6.244000,141.695000,-17.863000,29.42
2.024860,0.477000,-0.156000,-0.872000,-5.740000,167.817000,-23.466000,29.47
2.034817,0.405000,-0.188000,-0.876000,-12.122000,195.466000,-35.237000,29.47
2.045274,0.385000,-0.192000,-0.846000,-14.809000,215.725000,-51.130000,29.52
2.054892,0.479000,-0.133000,-0.862000,-29.130000,230.031000,-62.947000,29.38
2.064835,0.534000,-0.044000,-0.825000,-30.641000,252.458000,-70.015000,29.47
2.074842,0.510000,-0.096000,-0.776000,-31.221000,256.198000,-84.168000,29.47
2.084814,0.548000,-0.094000,-0.759000,-52.550000,294.046000,-100.061000,29.42
2.094830,0.619000,-0.186000,-0.784000,-73.069000,325.511000,-120.214000,29.42
2.104866,0.796000,-0.270000,-1.027000,-92.504000,365.115000,-142.901000,29.38
2.114861,1.067000,-0.378000,-1.101000,-102.489000,406.641000,-160.580000,29.47
2.124879,1.473000,-0.343000,-1.310000,-94.687000,418.947000,-173.542000,29.52
2.134804,1.962000,-0.315000,-1.511000,-100.260000,500.260000,-187.618000,29.42
2.146114,2.552000,-0.258000,-1.955000,-97.053000,500.260000,-192.840000,29.47
2.155167,3.012000,-0.937000,-2.575000,33.557000,500.260000,-185.053000,29.47
2.164911,2.541000,-0.972000,-2.508000,7.725000,418.733000,-183.679000,29.33
2.174846,1.206000,-1.225000,-2.289000,-59.786000,339.634000,-211.374000,29.42
2.191934,1.404000,-1.806000,-3.043000,-140.382000,234.855000,-203.527000,29.38
2.194809,-1.375000,-1.813000,-3.668000,-73.176000,105.252000,-47.939000,29.57
2.205057,4.000000,-3.406000,-4.000000,-3.695000,46.198000,101.527000,29.42
2.214873,0.376000,-2.628000,-2.687000,-76.748000,-205.328000,142.412000,29.42
2.225041,-0.909000,-1.602000,-1.500000,-116.962000,-282.580000,160.702000,29.38
2.235120,-0.576000,-0.650000,-1.553000,-110.809000,-234.534000,165.618000,29.57
2.248473,-0.517000,-0.356000,-1.699000,-47.344000,-161.008000,159.542000,29.52
2.256460,-0.302000,-0.248000,-1.718000,7.466000,-148.260000,144.260000,29.52
2.264881,-0.152000,-0.282000,-1.699000,23.038000,-210.550000,112.748000,29.47
2.275008,0.113000,-0.312000,-1.591000,14.580000,-273.221000,73.420000,29.57
2.284848,0.298000,-0.140000,-1.617000,1.863000,-313.603000,35.786000,29.47
2.294844,0.632000,0.153000,-1.614000,3.237000,-308.244000,-0.076000,29.42
2.307725,0.770000,0.135000,-1.402000,47.115000,-397.863000,-22.779000,29.52
2.325358,0.772000,0.127000,-1.036000,76.687000,-411.344000,-42.931000,29.47
2.331046,0.872000,-0.023000,-0.844000,100.229000,-398.748000,-55.145000,29.38
2.334868,0.991000,-0.268000,-0.712000,115.008000,-370.412000,-52.092000,29.52
2.344886,1.091000,-0.417000,-0.786000,130.840000,-360.275000,-32.992000,29.42
2.355147,1.138000,-0.463000,-0.865000,148.076000,-350.977000,-5.038000,29.38
2.364904,1.235000,-0.431000,-0.958000,163.282000,-338.916000,26.214000,29.47
2.374929,1.310000,-0.489000,-0.969000,176.153000,-316.244000,55.847000,29.42
2.384888,1.491000,-0.449000,-0.956000,181.328000,-296.947000,92.137000,29.42
2.396223,1.524000,-0.401000,-1.007000,174.382000,-282.855000,125.573000,29.47
2.404964,1.568000,-0.259000,-1.022000,155.344000,-259.069000,154.580000,29.47
2.414997,1.593000,0.041000,-1.131000,142.076000,-234.534000,173.221000,29.42
2.424878,1.727000,0.422000,-1.285000,137.802000,-225.588000,179.160000,29.38
2.434825,1.854000,0.739000,-1.343000,135.511000,-208.550000,173.038000,29.47
2.444856,2.019000,1.004000,-1.404000,132.290000,-208.870000,153.985000,29.38
2.454915,2.185000,1.204000,-1.367000,123.389000,-214.031000,124.595000,29.42
2.464898,2.402000,1.229000,-1.118000,121.740000,-205.557000,98.550000,29.42
2.474860,2.718000,1.316000,-1.243000,107.679000,-204.275000,77.740000,29.38
2.484858,3.108000,1.009000,-1.167000,91.191000,-215.496000,71.237000,29.38
2.494861,3.170000,0.855000,-0.712000,70.122000,-224.855000,72.870000,29.42
2.505021,3.088000,1.042000,-0.129000,47.725000,-234.351000,62.351000,29.52
2.515224,2.810000,1.290000,0.365000,31.511000,-187.969000,47.298000,29.38
2.524841,2.872000,1.437000,0.845000,31.542000,-152.366000,35.603000,29.47
2.534803,2.734000,1.250000,1.287000,3.115000,-90.473000,33.282000,29.42
2.544829,2.991000,1.368000,1.926000,64.794000,57.710000,19.496000,29.42
2.554856,2.805000,1.182000,1.512000,17.313000,21.985000,36.870000,29.47
2.564825,3.507000,0.971000,1.456000,-39.939000,126.626000,48.977000,29.47
2.574825,2.870000,0.867000,1.577000,-32.687000,164.092000,41.710000,29.61
2.589048,1.963000,0.288000,-1.686000,-16.382000,204.473000,37.588000,29.38
2.599039,-0.421000,0.237000,-3.105000,-2.153000,114.107000,0.504000,29.47
2.604835,-0.894000,0.345000,-1.195000,6.733000,111.038000,-60.992000,29.47
2.614922,0.580000,0.396000,-0.997000,26.595000,189.221000,-87.160000,29.42
2.624857,1.696000,0.270000,-2.224000,46.809000,178.885000,-68.611000,29.33
2.634841,1.090000,0.352000,-1.984000,-6.885000,228.916000,-54.977000,29.57
2.645257,0.728000,0.215000,-1.626000,73.557000,124.290000,-62.000000,29.47
2.664334,0.929000,-0.601000,-1.170000,62.214000,104.427000,-49.145000,29.52
2.664970,0.762000,-0.971000,-0.827000,50.702000,76.305000,-30.855000,29.42
2.675026,0.714000,-1.112000,-0.659000,18.763000,100.779000,-23.832000,29.47
2.685001,0.671000,-0.605000,-0.837000,-0.321000,71.786000,-25.924000,29.47
2.694936,0.606000,-0.522000,-0.936000,-23.924000,53.634000,-29.221000,29.42
2.705230,0.478000,-0.667000,-0.739000,-47.863000,48.397000,-36.000000,29.52
2.715513,0.417000,-0.607000,-0.786000,-77.252000,66.137000,-45.649000,29.47
2.725784,0.412000,-0.539000,-0.909000,-93.939000,66.534000,-55.985000,29.47
2.734930,0.500000,-0.429000,-0.988000,-100.458000,70.992000,-59.145000,29.42
2.749122,0.602000,-0.229000,-1.094000,-91.298000,61.023000,-56.382000,29.38
2.754976,0.612000,0.028000,-1.076000,-64.443000,37.252000,-46.321000,29.47
2.767529,0.831000,-0.120000,-1.184000,-48.366000,-75.298000,-43.008000,29.42
2.775770,0.825000,-0.154000,-1.172000,-19.145000,-71.557000,-32.412000,29.42
2.785736,0.472000,-0.189000,-0.794000,-27.481000,-3.603000,-25.588000,29.47
2.795631,0.541000,-0.296000,-0.910000,-29.893000,8.687000,-25.420000,29.38
2.805440,0.473000,-0.271000,-0.858000,-30.992000,7.740000,-26.183000,29.52
2.815082,0.462000,-0.296000,-0.837000,-33.176000,1.527000,-28.702000,29.52
2.824916,0.451000,-0.269000,-0.830000,-35.618000,5.832000,-31.985000,29.38
2.839147,0.450000,-0.246000,-0.850000,-34.336000,0.779000,-33.725000,29.47
2.847385,0.422000,-0.204000,-0.843000,-33.786000,-0.504000,-35.099000,29.42
2.855001,0.437000,-0.155000,-0.876000,-34.595000,8.931000,-34.901000,29.42
2.867625,0.484000,-0.192000,-0.853000,-32.412000,18.718000,-34.977000,29.38
2.874876,0.486000,-0.106000,-0.876000,-29.145000,21.527000,-34.198000,29.47
2.884836,0.503000,-0.094000,-0.847000,-24.885000,28.718000,-33.725000,29.42
2.894853,0.365000,-0.697000,-0.637000,-27.115000,33.405000,-33.069000,29.42
2.904909,0.492000,0.127000,-0.947000,-22.916000,42.290000,-33.130000,29.47
2.915951,0.564000,-0.128000,-0.900000,-19.374000,44.931000,-25.924000,29.47
2.924837,0.459000,-0.046000,-0.878000,-14.718000,53.603000,-23.634000,29.42
2.935161,0.488000,-0.063000,-0.873000,-15.878000,58.427000,-19.618000,29.42
2.945019,0.505000,-0.089000,-0.910000,-12.931000,66.992000,-17.756000,29.38
2.958470,0.509000,-0.145000,-0.869000,-12.641000,79.389000,-16.290000,29.47
2.966957,0.490000,-0.205000,-0.897000,-13.069000,100.153000,-19.664000,29.42
2.975583,0.518000,-0.200000,-0.885000,-14.046000,126.489000,-22.626000,29.52
2.985678,0.496000,-0.182000,-0.876000,-17.099000,151.160000,-28.565000,29.38
2.994995,0.437000,-0.173000,-0.895000,-23.206000,180.626000,-39.328000,29.47
3.007850,0.375000,-0.124000,-0.841000,-30.382000,208.672000,-53.130000,29.42
3.016066,0.445000,-0.071000,-0.855000,-32.336000,235.588000,-62.687000,29.57
3.025427,0.512000,-0.028000,-0.863000,-27.756000,242.458000,-68.840000,29.57
3.040571,0.509000,-0.042000,-0.821000,-27.969000,261.740000,-79.573000,29.47
3.046649,0.526000,-0.100000,-0.754000,-36.321000,292.595000,-97.084000,29.42
3.055464,0.523000,-0.100000,-0.786000,-58.626000,328.718000,-113.374000,29.42
3.064903,0.769000,-0.250000,-0.919000,-85.695000,360.672000,-135.603000,29.38
3.074932,1.105000,-0.414000,-1.078000,-101.649000,388.855000,-157.282000,29.38
3.085031,1.481000,-0.403000,-1.113000,-100.763000,424.122000,-176.244000,29.33
3.095080,1.807000,-0.305000,-1.441000,-89.878000,463.740000,-178.931000,29.42
3.105113,2.600000,-0.659000,-2.304000,-35.588000,498.290000,-175.695000,29.47
3.115018,2.744000,-0.758000,-2.454000,49.084000,468.733000,-180.336000,29.38
3.125139,2.524000,-0.943000,-2.632000,-44.321000,434.015000,-198.214000,29.42
3.134973,1.691000,-0.950000,-2.540000,-113.847000,330.901000,-218.534000,29.52
3.145076,1.115000,-1.569000,-2.947000,-162.031000,223.221000,-199.573000,29.47
3.155086,-1.616000,-1.901000,-3.268000,-75.267000,93.847000,-59.069000,29.57
3.164981,3.317000,-3.164000,-4.000000,-21.267000,20.748000,47.908000,29.42
3.174930,0.123000,-2.838000,-2.747000,-88.137000,-204.229000,88.550000,29.42
3.184869,-0.829000,-1.739000,-1.537000,-113.893000,-267.557000,102.305000,29.47
3.194974,-0.260000,-1.030000,-1.807000,-104.458000,-267.237000,127.450000,29.47
3.204897,-0.445000,-0.585000,-1.651000,-70.687000,-126.000000,143.176000,29.52
3.214928,-0.350000,-0.413000,-1.590000,-5.084000,-137.618000,138.137000,29.42
3.224883,-0.168000,-0.360000,-1.573000,24.229000,-182.718000,112.855000,29.38
3.234953,0.147000,-0.441000,-1.662000,21.573000,-258.107000,73.267000,29.38
3.244868,0.244000,-0.014000,-1.422000,34.000000,-298.595000,41.481000,29.47
3.254870,0.562000,0.043000,-1.514000,30.427000,-313.099000,9.939000,29.42
3.265992,0.653000,0.042000,-1.319000,53.634000,-345.313000,-12.076000,29.52
3.274989,0.753000,-0.071000,-1.225000,74.977000,-365.145000,-30.366000,29.47
3.284899,1.000000,-0.158000,-1.094000,94.977000,-375.160000,-37.344000,29.57
3.294892,0.997000,-0.343000,-0.870000,111.878000,-383.557000,-34.046000,29.52
3.304976,1.019000,-0.452000,-0.749000,124.809000,-371.817000,-17.893000,29.42
3.314830,1.045000,-0.522000,-0.732000,132.336000,-349.634000,9.405000,29.47
3.324953,1.037000,-0.504000,-0.771000,142.046000,-315.969000,40.672000,29.38
3.334868,1.105000,-0.494000,-0.926000,149.573000,-290.473000,71.588000,29.52
3.344870,1.174000,-0.465000,-0.897000,101.221000,-265.298000,107.664000,29.42
3.357158,1.456000,-0.149000,-1.223000,152.000000,-242.214000,124.153000,29.47
3.364855,1.337000,-0.154000,-1.151000,168.687000,-235.557000,142.595000,29.47
3.374849,1.471000,-0.309000,-1.131000,154.214000,-223.496000,148.855000,29.52
3.384885,1.758000,-0.106000,-1.246000,134.412000,-219.649000,159.817000,29.47
3.394847,1.905000,0.144000,-1.310000,122.794000,-215.084000,165.527000,29.57
3.404966,2.123000,0.350000,-1.353000,125.496000,-207.298000,167.221000,29.38
3.414872,2.312000,0.559000,-1.283000,135.725000,-204.092000,163.145000,29.52
3.426002,2.427000,0.753000,-1.124000,153.237000,-199.939000,153.389000,29.42
3.434847,2.701000,0.885000,-0.995000,168.962000,-187.160000,142.397000,29.47
3.444851,2.925000,0.990000,-0.940000,172.534000,-181.756000,135.206000,29.47
3.454886,3.079000,1.038000,-0.771000,169.710000,-178.641000,130.107000,29.42
3.464915,3.216000,1.079000,-0.390000,168.382000,-180.504000,130.305000,29.42
3.474873,3.141000,1.067000,0.185000,154.427000,-164.321000,128.153000,29.47
3.484902,3.049000,1.125000,0.637000,124.947000,-125.282000,122.718000,29.47
3.494888,3.042000,1.189000,0.957000,88.977000,-92.977000,114.534000,29.42
3.508222,2.282000,1.251000,2.213000,130.626000,35.603000,71.954000,29.33
3.514863,2.749000,1.252000,1.994000,-17.817000,13.863000,60.504000,29.38
3.524870,3.632000,2.027000,2.457000,-209.573000,81.969000,46.931000,29.47
3.534911,3.113000,2.675000,1.737000,-158.519000,82.779000,-24.458000,29.42
3.548738,1.154000,1.297000,-1.515000,-105.389000,211.298000,-49.618000,29.47
3.554829,0.395000,0.114000,-4.000000,-87.450000,123.893000,-70.962000,29.47
3.564876,-0.026000,-0.317000,-1.952000,-5.588000,119.557000,-91.130000,29.38
3.575804,-0.246000,0.115000,0.159000,12.351000,188.489000,-134.260000,29.42
3.588596,1.836000,-0.244000,-1.320000,29.435000,223.878000,-119.023000,29.52
3.598628,2.253000,-0.167000,-2.634000,33.405000,164.824000,-78.763000,29.38
3.608694,0.802000,0.061000,-0.921000,27.328000,157.481000,-112.168000,29.38
3.615615,1.037000,-0.867000,-1.400000,-35.160000,144.015000,-79.374000,29.42
3.624865,1.141000,-0.826000,-1.059000,-62.763000,98.565000,-50.092000,29.42
3.634853,0.884000,-0.204000,-1.143000,-56.489000,88.427000,-43.557000,29.47
3.644854,0.763000,-0.196000,-1.123000,-41.756000,66.779000,-42.794000,29.47
3.654925,0.623000,-0.609000,-0.894000,-58.718000,49.649000,-34.275000,29.42
3.664770,0.503000,-0.527000,-0.874000,-74.443000,27.466000,-31.466000,29.52
3.674852,0.403000,-0.353000,-0.876000,-80.656000,9.679000,-35.710000,29.47
3.684854,0.355000,-0.458000,-0.811000,-81.511000,-2.672000,-36.183000,29.28
3.694888,0.422000,-0.412000,-0.916000,-74.870000,-12.244000,-41.496000,29.52
3.704876,0.443000,-0.212000,-0.970000,-81.267000,4.046000,-41.542000,29.47
3.723222,0.462000,-0.069000,-0.970000,-74.321000,6.901000,-37.756000,29.47
3.724877,0.458000,-0.255000,-0.940000,-66.550000,15.908000,-35.344000,29.47
3.734902,0.483000,-0.183000,-0.972000,-56.214000,16.046000,-33.771000,29.42
3.745014,0.493000,-0.098000,-0.955000,-38.107000,9.985000,-27.878000,29.52
3.754858,0.483000,-0.167000,-0.922000,-29.023000,12.321000,-23.481000,29.38
3.768334,0.437000,-0.196000,-0.900000,-23.450000,11.176000,-22.916000,29.47
3.774861,0.634000,-0.420000,-1.057000,-23.588000,-18.702000,-25.298000,29.33
3.788076,0.396000,-0.180000,-0.847000,-39.878000,85.206000,-22.916000,29.42
3.797651,0.420000,-0.183000,-0.786000,-1.969000,-77.176000,-23.679000,29.38
3.806054,0.325000,-0.121000,-0.862000,-25.466000,13.435000,-20.977000,29.47
3.815693,0.422000,-0.158000,-0.896000,-26.000000,10.092000,-21.649000,29.42
3.826089,0.430000,-0.170000,-0.866000,-28.733000,31.542000,-22.198000,29.42
3.839208,0.480000,-0.187000,-0.893000,-26.580000,19.374000,-23.511000,29.47
3.846004,0.447000,-0.123000,-0.898000,-21.466000,6.855000,-24.122000,29.38
3.857103,0.458000,-0.100000,-0.881000,-17.893000,8.397000,-22.336000,29.52
3.864894,0.453000,-0.081000,-0.898000,-15.939000,16.229000,-20.992000,29.47
3.874874,0.485000,-0.091000,-0.888000,-14.336000,25.206000,-20.412000,29.38
3.888048,0.439000,-0.126000,-0.854000,-13.802000,30.168000,-18.885000,29.38
3.896117,0.478000,-0.071000,-0.864000,-10.534000,31.908000,-18.855000,29.42
3.906213,0.496000,-0.231000,-0.866000,-9.511000,33.374000,-17.786000,29.42
3.916067,0.486000,-0.072000,-0.916000,-5.817000,32.107000,-19.771000,29.38
3.924813,0.444000,-0.113000,-0.879000,-5.450000,39.252000,-19.282000,29.38
3.937729,0.454000,-0.159000,-0.892000,-4.656000,47.176000,-20.244000,29.42
3.947339,0.443000,-0.131000,-0.892000,-6.901000,62.473000,-19.924000,29.42
3.959487,0.430000,-0.182000,-0.935000,-10.748000,78.168000,-20.656000,29.47
3.976435,0.462000,-0.255000,-0.940000,-17.389000,103.893000,-22.183000,29.38
3.977201,0.469000,-0.240000,-0.939000,-24.275000,126.321000,-27.298000,29.42
3.987604,0.468000,-0.241000,-0.905000,-34.031000,153.969000,-33.618000,29.42
3.998620,0.449000,-0.153000,-0.852000,-45.985000,182.779000,-44.031000,29.38
4.005002,0.369000,-0.100000,-0.863000,-55.771000,211.893000,-56.733000,29.38
4.015334,0.411000,-0.003000,-0.919000,-59.496000,237.618000,-67.389000,29.42
4.024882,0.468000,0.015000,-0.900000,-66.198000,272.718000,-74.840000,29.47
4.034831,0.642000,0.027000,-0.736000,-46.840000,166.198000,-82.992000,29.38
4.044896,0.411000,-0.024000,-0.921000,-41.237000,229.542000,-93.847000,29.47
4.054910,0.488000,-0.029000,-1.054000,-28.916000,282.198000,-131.344000,29.42
4.064847,0.429000,-0.238000,-0.837000,-92.885000,321.634000,-163.176000,29.42
4.074879,0.916000,-0.211000,-1.140000,-91.908000,235.267000,-196.962000,29.57
4.084845,1.509000,-0.519000,-1.639000,-140.504000,495.588000,-197.908000,29.38
4.094876,2.172000,-0.969000,-2.178000,-69.511000,469.099000,-176.977000,29.42
4.104954,2.878000,-0.394000,-3.314000,54.366000,438.504000,-174.183000,29.42
4.114830,2.424000,-1.096000,-2.749000,10.122000,444.076000,-205.863000,29.38
4.124872,2.419000,-0.609000,-2.803000,-35.496000,424.061000,-226.672000,29.47
4.134856,1.000000,-1.219000,-3.187000,-80.763000,289.695000,-200.870000,29.42
4.145906,-2.081000,-2.005000,-3.152000,7.603000,107.969000,-97.557000,29.42
4.154885,2.066000,-2.737000,-4.000000,63.679000,118.855000,-19.282000,29.38
4.164839,-0.441000,-2.459000,-2.491000,-21.221000,-83.527000,3.481000,29.47
4.174868,-0.567000,-2.627000,-0.588000,-39.405000,-96.351000,36.382000,29.52
4.184862,-0.243000,-1.414000,-1.760000,-101.374000,-242.534000,20.473000,29.42
4.194866,-0.220000,-0.717000,-1.726000,-12.275000,-440.473000,62.916000,29.38
4.206111,-0.488000,-0.672000,-1.306000,57.588000,-340.534000,61.252000,29.47
4.217458,-0.378000,-0.822000,-1.057000,82.824000,-231.771000,58.809000,29.52
4.226282,-0.066000,-0.838000,-1.060000,73.893000,-201.344000,55.603000,29.42
4.234858,-0.111000,-0.666000,-0.791000,41.405000,-161.756000,68.427000,29.38
4.244889,0.177000,-0.290000,-1.102000,47.710000,-183.511000,76.962000,29.38
4.254849,0.335000,-0.219000,-1.059000,84.977000,-217.832000,83.557000,29.52
4.264891,0.438000,-0.244000,-1.084000,108.992000,-219.527000,88.748000,29.42
4.274924,0.513000,-0.320000,-1.021000,115.695000,-203.328000,93.099000,29.47
4.284869,0.586000,-0.331000,-1.077000,111.771000,-193.313000,96.855000,29.47
4.294892,0.735000,-0.269000,-1.110000,110.931000,-180.092000,103.374000,29.42
4.304936,0.751000,-0.126000,-0.694000,133.466000,-163.038000,114.321000,29.42
4.314867,0.894000,-0.141000,-1.250000,122.489000,-191.847000,116.092000,29.38
4.324869,0.972000,-0.144000,-1.322000,145.924000,-283.817000,127.252000,29.38
4.334959,1.044000,0.019000,-1.356000,148.473000,-274.794000,123.695000,29.52
4.344892,1.122000,-0.071000,-1.380000,158.290000,-267.557000,121.649000,29.42
4.354957,1.274000,-0.122000,-1.316000,156.290000,-248.443000,124.947000,29.47
4.364910,1.429000,-0.154000,-1.336000,154.977000,-252.794000,129.527000,29.47
4.374959,1.598000,-0.085000,-1.356000,155.267000,-246.901000,138.275000,29.42
4.385391,1.751000,0.022000,-1.245000,163.634000,-234.626000,148.641000,29.42
4.395406,1.905000,0.255000,-1.195000,167.679000,-214.275000,155.344000,29.38
4.405710,2.156000,0.341000,-1.144000,168.168000,-189.466000,156.748000,29.38
4.414991,2.157000,0.861000,-1.077000,165.817000,-181.618000,152.061000,29.38
4.429435,2.647000,0.895000,-1.023000,179.954000,-164.656000,151.145000,29.42
4.437681,2.594000,1.070000,-0.916000,152.137000,-99.344000,139.832000,29.42
4.445719,2.960000,1.062000,-0.979000,145.740000,-150.061000,134.534000,29.38
4.455490,3.123000,1.188000,-0.665000,106.824000,-154.580000,123.649000,29.47
4.467540,3.171000,1.265000,-0.233000,62.824000,-150.260000,106.962000,29.33
4.475297,2.991000,1.484000,0.373000,45.267000,-138.000000,84.992000,29.42
4.485300,2.840000,1.714000,0.771000,46.489000,-87.267000,61.527000,29.47
4.495779,2.671000,1.782000,0.988000,61.420000,-27.573000,44.718000,29.38
4.505438,2.762000,1.499000,1.239000,81.664000,49.725000,38.275000,29.42
4.515293,2.437000,1.093000,0.900000,41.328000,121.664000,44.840000,29.42
4.526283,3.405000,0.952000,1.594000,-139.206000,78.015000,-11.389000,29.47
4.535571,0.249000,-2.869000,-0.285000,-500.275000,-500.275000,365.908000,29.38
4.545592,1.006000,0.887000,-2.488000,114.534000,312.366000,-84.336000,29.52
4.555600,-0.314000,-0.100000,-4.000000,-152.824000,-66.351000,-35.206000,29.38
4.565331,-1.405000,0.715000,-2.540000,-72.427000,242.794000,-79.130000,29.47
4.575492,0.520000,0.379000,-0.626000,-9.038000,144.870000,-140.885000,29.38
4.585357,1.970000,0.343000,-2.172000,25.389000,157.252000,-135.679000,29.42
4.595394,1.458000,-0.130000,-2.191000,62.107000,223.939000,-95.847000,29.33
4.605318,1.217000,-0.367000,-1.509000,-57.206000,-60.076000,-94.458000,29.38
4.614999,0.759000,-0.409000,-0.963000,-24.718000,80.595000,-54.137000,29.47
4.625077,0.591000,-0.171000,-1.100000,-19.130000,23.847000,-40.992000,29.52
4.635006,0.667000,-0.509000,-0.897000,-24.931000,11.221000,-37.374000,29.33
4.644990,0.776000,-0.817000,-0.734000,-41.359000,4.260000,-33.481000,29.38
4.655118,0.594000,-0.596000,-0.873000,-50.992000,3.176000,-28.687000,29.47
4.665121,0.443000,-0.359000,-0.910000,-62.275000,-4.107000,-27.130000,29.42
4.675114,0.400000,-0.521000,-0.767000,-69.969000,-11.267000,-27.496000,29.33
4.685100,0.287000,-0.533000,-0.805000,-75.023000,-20.275000,-31.344000,29.38
4.695101,0.276000,-0.355000,-0.888000,-78.702000,-1.573000,-35.282000,29.38
4.705342,0.268000,-0.246000,-0.859000,-84.183000,13.420000,-37.939000,29.33
4.715287,0.312000,-0.317000,-0.862000,-89.893000,29.084000,-39.313000,29.47
4.725193,0.480000,-0.276000,-1.165000,-89.664000,39.603000,-37.420000,29.47
4.735282,0.486000,-0.126000,-1.010000,-69.496000,22.000000,-33.710000,29.38
4.745264,0.481000,-0.364000,-0.879000,-56.916000,27.405000,-30.473000,29.42
4.755189,0.494000,-0.192000,-1.027000,-47.008000,20.427000,-28.748000,29.42
4.765166,0.481000,-0.271000,-0.902000,-41.664000,23.649000,-27.908000,29.47
4.775288,0.462000,-0.283000,-0.906000,-41.618000,24.855000,-27.664000,29.38
4.785330,0.455000,-0.177000,-0.928000,-39.481000,26.122000,-26.733000,29.42
4.795363,0.457000,-0.122000,-0.896000,-30.214000,27.435000,-24.916000,29.42
4.805440,0.431000,-0.162000,-0.904000,-26.885000,39.847000,-25.710000,29.47
4.815288,0.437000,-0.195000,-0.904000,-25.832000,49.450000,-26.168000,29.47
4.825268,0.502000,-0.339000,-0.525000,3.313000,54.733000,-25.084000,29.42
4.835277,0.434000,-0.126000,-0.892000,-27.374000,76.458000,-22.473000,29.42
4.845335,0.490000,-0.114000,-0.916000,-15.450000,34.244000,-21.511000,29.38
4.855272,0.486000,-0.104000,-0.887000,-10.916000,38.290000,-23.450000,29.38
4.865403,0.627000,-0.460000,-0.871000,-20.443000,41.847000,-22.351000,29.33
4.875595,0.534000,-0.062000,-0.915000,-11.649000,66.046000,-21.206000,29.47
4.885215,0.462000,-0.100000,-0.815000,-15.954000,61.145000,-18.656000,29.38
4.895159,0.568000,-0.021000,-1.085000,-19.466000,70.198000,-17.542000,29.47
4.905567,0.446000,-0.142000,-0.812000,-7.908000,89.588000,-11.908000,29.42
4.915108,0.570000,-0.082000,-1.013000,-18.107000,75.802000,-12.779000,29.42
4.925428,0.434000,-0.206000,-0.715000,4.595000,116.229000,-5.099000,29.47
4.935420,0.546000,-0.204000,-0.859000,-30.519000,97.527000,-13.573000,29.47
4.945400,0.529000,-0.185000,-0.881000,-21.252000,140.229000,-14.366000,29.52
4.955334,0.446000,-0.192000,-0.867000,-26.840000,169.389000,-18.168000,29.52
4.965316,0.400000,-0.136000,-0.841000,-31.542000,193.313000,-32.473000,29.38
4.975419,0.448000,-0.112000,-0.836000,-35.954000,229.649000,-42.382000,29.38
4.985170,0.473000,-0.098000,-0.853000,-38.305000,246.885000,-47.908000,29.52
4.995509,0.968000,-0.139000,-1.519000,-57.115000,109.328000,-39.847000,29.42
5.005432,0.504000,-0.098000,-0.808000,-17.939000,203.710000,-64.198000,29.38
5.015252,0.382000,-0.247000,-0.780000,-55.115000,282.931000,-83.298000,29.47
5.025399,0.608000,-0.196000,-0.835000,-68.672000,326.550000,-111.740000,29.42
5.035403,1.228000,-0.255000,-1.465000,-46.122000,222.153000,-137.878000,29.57
5.045362,1.120000,-0.305000,-1.206000,-66.000000,418.901000,-148.031000,29.47
5.055360,1.417000,-0.367000,-1.521000,-49.893000,440.687000,-149.695000,29.38
5.065250,1.951000,-0.386000,-1.942000,10.519000,500.260000,-145.618000,29.52
5.075351,2.633000,-0.779000,-2.665000,88.534000,430.748000,-134.534000,29.42
5.085375,2.646000,-0.674000,-2.312000,94.076000,454.015000,-146.198000,29.38
5.095396,2.338000,-0.629000,-2.898000,17.847000,444.122000,-174.122000,29.47
5.105420,1.536000,-0.982000,-3.258000,-36.229000,356.412000,-170.275000,29.42
5.115086,-0.598000,-1.323000,-3.670000,-32.168000,127.053000,-96.183000,29.42
5.125072,1.201000,-3.206000,-4.000000,52.901000,108.565000,-16.962000,29.47
5.135145,1.338000,-2.458000,-4.000000,-66.504000,-479.695000,14.534000,29.57
5.145269,-0.893000,-2.822000,-1.644000,-86.229000,133.740000,-23.817000,29.52
5.155517,-0.626000,-1.363000,-1.447000,-92.534000,-491.252000,78.397000,29.42
5.165273,-0.320000,-0.976000,-1.705000,-96.870000,-248.992000,107.588000,29.38
5.175299,-0.363000,-0.699000,-1.501000,-33.954000,-346.183000,122.000000,29.47
5.185373,-0.226000,-0.744000,-1.462000,4.015000,-223.679000,114.733000,29.42
5.195326,-0.008000,-0.447000,-1.406000,3.924000,-224.916000,80.122000,29.38
5.205401,0.034000,-0.259000,-1.365000,5.237000,-286.061000,70.305000,29.47
5.215266,0.492000,-0.042000,-1.481000,0.321000,-319.481000,36.321000,29.47
5.225231,0.502000,-0.241000,-1.292000,26.595000,-334.794000,10.641000,29.42
5.235358,0.635000,0.045000,-1.206000,58.672000,-365.053000,-9.832000,29.52
5.245357,0.715000,-0.175000,-0.960000,76.015000,-341.359000,-15.878000,29.38
5.255365,1.074000,-0.450000,-1.077000,104.031000,-400.229000,-15.328000,29.47
5.265144,0.890000,-0.497000,-0.866000,66.198000,-234.718000,1.313000,29.42
5.275339,1.032000,-0.521000,-1.062000,122.626000,-395.023000,30.962000,29.52
5.285326,1.017000,-0.459000,-1.149000,144.824000,-355.252000,57.878000,29.47
5.295091,1.136000,-0.497000,-1.228000,156.427000,-333.511000,81.038000,29.47
5.305107,1.296000,-0.711000,-1.319000,153.145000,-304.031000,109.618000,29.42
5.315050,1.414000,-0.717000,-1.222000,146.947000,-288.137000,148.153000,29.42
5.325028,1.517000,-0.616000,-1.207000,141.344000,-266.931000,183.374000,29.47
5.335047,1.590000,-0.356000,-1.305000,136.626000,-231.817000,213.847000,29.47
5.345101,1.708000,-0.053000,-1.398000,137.466000,-216.214000,240.916000,29.52
5.355149,1.899000,0.160000,-1.418000,139.588000,-194.885000,256.504000,29.38
5.365168,2.304000,0.221000,-1.388000,132.031000,-174.534000,262.565000,29.38
5.375132,2.553000,0.143000,-1.348000,129.374000,-158.137000,267.573000,29.47
5.385069,3.460000,-0.079000,-1.344000,118.489000,-150.534000,269.115000,29.52
5.395208,3.762000,0.070000,-1.165000,78.641000,-139.802000,270.397000,29.52
5.405214,4.000000,0.390000,-0.590000,39.817000,-162.580000,261.344000,29.38
5.415267,3.688000,1.085000,0.332000,26.763000,-160.321000,233.115000,29.28
5.425268,3.492000,1.689000,0.921000,72.305000,-145.802000,193.985000,29.42
5.435303,3.484000,2.166000,1.285000,121.878000,-79.618000,156.840000,29.42
5.445111,3.487000,1.939000,1.447000,109.847000,-5.863000,119.542000,29.38
5.455090,4.000000,3.700000,2.862000,-193.344000,251.298000,130.183000,29.38
5.465027,2.336000,1.620000,1.229000,36.336000,-360.885000,-88.626000,29.42
5.475003,3.483000,1.117000,-1.033000,-128.092000,-401.664000,-129.053000,29.52
5.484894,0.623000,0.235000,1.010000,16.061000,-181.664000,-172.214000,29.42
5.494860,0.113000,-2.506000,-2.293000,-85.603000,-2.824000,-83.450000,29.38
5.504949,-2.299000,-3.884000,1.345000,-135.695000,500.260000,38.748000,29.47
5.514824,-0.650000,-1.740000,1.525000,-21.496000,-11.344000,-79.298000,29.52
5.524863,1.927000,0.512000,-2.151000,-27.191000,-214.031000,-97.969000,29.38
5.535396,2.119000,1.518000,-3.989000,34.168000,133.924000,-85.695000,29.38
5.544835,1.194000,2.000000,-3.315000,37.542000,172.977000,-116.137000,29.42
5.554970,1.151000,-0.175000,-2.227000,42.168000,243.374000,-122.458000,29.52
5.564873,1.107000,-2.027000,-0.717000,17.359000,151.802000,-76.458000,29.38
5.574874,0.682000,-1.133000,-0.645000,-5.710000,239.435000,-62.443000,29.57
5.584832,0.647000,0.202000,-1.559000,-10.290000,160.916000,-68.595000,29.52
5.594823,0.881000,-0.328000,-1.238000,-2.550000,96.443000,-60.031000,29.33
5.604901,0.771000,-1.123000,-0.668000,-19.252000,53.496000,-42.733000,29.47
5.614850,0.480000,-0.792000,-0.766000,-46.260000,36.519000,-39.603000,29.47
5.624883,0.443000,-0.404000,-0.993000,-59.282000,26.244000,-45.817000,29.42
5.634859,0.395000,-0.559000,-0.787000,-63.878000,25.008000,-49.069000,29.42
5.644884,0.329000,-0.685000,-0.750000,-74.107000,20.794000,-52.458000,29.47
5.654970,0.209000,-0.407000,-0.762000,-85.725000,12.107000,-60.779000,29.47
5.665020,0.040000,-0.973000,-1.519000,-120.504000,-24.870000,-51.206000,29.42
5.675012,0.290000,-0.357000,-1.161000,-104.260000,250.244000,-95.985000,29.38
5.684981,0.466000,-0.298000,-0.794000,-65.954000,-165.832000,-52.550000,29.38
5.695044,0.541000,-0.142000,-1.214000,-87.710000,9.466000,-32.779000,29.47
5.705057,0.435000,-0.121000,-0.861000,-78.275000,56.290000,-28.351000,29.52
5.715084,0.468000,-0.268000,-0.912000,-71.786000,21.405000,-27.359000,29.42
5.725149,0.378000,-0.310000,-0.920000,-64.183000,-12.092000,-29.206000,29.47
5.735123,0.482000,-0.580000,-0.718000,-42.901000,-40.885000,-35.313000,29.38
5.745170,0.306000,-0.138000,-0.867000,-42.000000,2.015000,-33.878000,29.42
5.755156,0.434000,-0.287000,-0.863000,-44.595000,2.809000,-34.565000,29.42
5.765238,0.430000,-0.154000,-0.966000,-45.954000,15.176000,-33.084000,29.47
5.775225,0.423000,-0.150000,-0.904000,-41.237000,2.183000,-29.557000,29.47
5.785260,0.418000,-0.078000,-0.886000,-36.214000,8.229000,-27.634000,29.42
5.795240,0.431000,-0.168000,-0.855000,-34.885000,20.626000,-25.710000,29.42
5.805214,0.345000,-0.115000,-0.840000,-38.885000,30.687000,-25.420000,29.38
5.815093,0.430000,-0.121000,-0.950000,-31.267000,18.137000,-25.832000,29.47
5.825109,0.478000,-0.147000,-0.907000,-28.076000,32.214000,-25.679000,29.42
5.835200,0.468000,-0.079000,-0.898000,-22.901000,41.298000,-27.344000,29.47
5.845151,0.388000,-0.516000,-0.685000,-13.053000,36.824000,-23.740000,29.38
5.855271,0.453000,-0.064000,-0.949000,-19.115000,64.855000,-25.832000,29.38
5.865171,0.487000,-0.109000,-0.938000,-11.374000,46.901000,-23.756000,29.42
5.875079,0.473000,-0.116000,-0.919000,-13.725000,75.695000,-21.954000,29.47
5.885165,0.406000,-0.125000,-0.906000,-14.092000,88.809000,-21.847000,29.47
5.895180,0.454000,-0.063000,-1.020000,-15.466000,95.573000,-23.847000,29.52
5.905191,0.478000,-0.230000,-0.932000,-15.084000,116.076000,-25.878000,29.42
5.915190,0.457000,-0.260000,-0.915000,-25.985000,104.168000,-26.351000,29.47
5.925189,0.466000,-0.210000,-0.882000,-38.397000,124.504000,-30.489000,29.38
5.935265,0.273000,-0.190000,-0.928000,-55.908000,174.519000,-50.656000,29.42
5.945214,0.386000,0.090000,-0.894000,-74.687000,207.511000,-73.099000,29.42
5.955270,0.430000,-0.190000,-0.935000,-62.672000,270.336000,-90.840000,29.47
5.965110,0.424000,-0.053000,-0.926000,-70.351000,250.855000,-109.924000,29.47
5.975224,0.482000,0.046000,-0.953000,-75.176000,268.672000,-124.198000,29.42
5.985364,0.451000,-0.081000,-0.824000,-76.565000,295.618000,-154.748000,29.52
5.995457,0.625000,-0.111000,-1.044000,-114.244000,320.885000,-182.153000,29.47
6.005285,0.986000,-0.221000,-1.089000,-146.092000,351.176000,-200.153000,29.47
6.015206,1.293000,-0.345000,-1.311000,-153.954000,379.405000,-208.198000,29.38
6.025251,1.929000,-0.720000,-1.908000,-65.664000,418.351000,-202.305000,29.42
6.035248,2.606000,-0.645000,-2.645000,7.328000,380.992000,-183.160000,29.52
6.045270,2.280000,-0.692000,-2.364000,-34.229000,415.374000,-210.870000,29.47
6.055430,2.099000,-0.843000,-2.502000,-96.611000,441.160000,-247.313000,29.47
6.065316,1.195000,-1.366000,-2.669000,-143.206000,284.244000,-217.710000,29.42
6.075325,-0.048000,-1.451000,-2.626000,-158.321000,114.260000,-146.183000,29.42
6.085323,0.334000,-4.000000,-4.000000,58.244000,124.550000,104.595000,29.38
6.095322,0.993000,-3.597000,-3.451000,-15.969000,8.122000,169.450000,29.47
6.105313,-1.142000,-3.145000,-0.985000,-111.832000,-130.382000,244.901000,29.42
6.115220,-0.538000,-1.310000,-1.745000,-145.374000,-163.908000,272.000000,29.42
6.125398,-0.438000,-0.667000,-1.802000,-89.176000,-99.954000,277.511000,29.47
6.135414,-0.439000,-0.394000,-1.772000,-30.305000,-74.565000,265.191000,29.47
6.145400,-0.429000,-0.425000,-1.750000,-39.176000,-120.458000,222.580000,29.42
6.155305,-0.058000,-0.169000,-1.860000,-65.160000,-200.580000,160.458000,29.47
6.165169,0.190000,0.253000,-2.014000,-90.000000,-224.580000,90.885000,29.47
6.175322,0.557000,0.539000,-2.222000,-48.305000,-358.809000,24.809000,29.47
6.185354,0.684000,0.577000,-1.833000,-5.145000,-398.840000,-37.557000,29.42
6.195363,0.888000,0.181000,-1.444000,41.435000,-429.756000,-80.366000,29.42
6.205291,1.083000,-0.145000,-1.140000,71.786000,-439.420000,-97.221000,29.38
6.215340,1.113000,-0.561000,-0.713000,92.183000,-439.939000,-88.718000,29.38
6.225417,1.186000,-0.674000,-0.443000,107.740000,-395.405000,-57.847000,29.52
6.235452,1.103000,-0.753000,-0.385000,129.389000,-350.260000,-12.229000,29.33
6.245363,1.124000,-0.806000,-0.477000,144.687000,-289.969000,36.947000,29.38
6.255381,1.162000,-0.771000,-0.639000,153.191000,-249.863000,84.901000,29.47
6.265346,1.242000,-0.821000,-0.821000,151.008000,-216.427000,123.496000,29.42
6.275664,1.362000,-0.661000,-0.969000,147.389000,-186.351000,156.168000,29.42
6.285356,1.526000,-0.465000,-1.140000,146.137000,-163.298000,178.718000,29.38
6.295370,1.707000,-0.218000,-1.213000,148.687000,-146.366000,195.237000,29.47
6.305214,1.852000,-0.022000,-1.244000,142.794000,-135.435000,201.969000,29.52
6.315271,2.048000,0.197000,-1.190000,135.405000,-122.916000,198.794000,29.47
6.325440,2.102000,0.563000,-1.082000,127.802000,-101.786000,186.366000,29.47
6.335145,2.351000,0.814000,-1.300000,128.519000,-194.763000,173.924000,29.47
6.345425,2.316000,1.075000,-1.165000,127.435000,-169.420000,154.641000,29.33
6.354968,2.441000,1.345000,-1.136000,135.832000,-161.573000,126.656000,29.42
6.364993,2.487000,1.434000,-0.949000,135.252000,-144.534000,89.649000,29.38
6.375195,2.689000,1.404000,-0.710000,127.115000,-142.901000,49.664000,29.38
6.385298,2.726000,1.338000,-0.378000,123.023000,-150.183000,16.473000,29.52
6.395255,2.720000,1.236000,-0.024000,123.008000,-150.214000,-3.099000,29.42
6.405320,2.637000,1.054000,0.328000,117.496000,-123.710000,-3.847000,29.38
6.415316,2.632000,0.827000,0.573000,93.740000,-83.679000,12.947000,29.47
6.425254,2.567000,0.632000,0.762000,62.550000,-56.809000,38.748000,29.52
6.435278,2.460000,0.652000,0.795000,20.947000,-20.901000,61.664000,29.52
6.445290,2.505000,-0.312000,1.099000,-69.221000,7.542000,81.023000,29.57
6.455497,3.091000,1.694000,1.378000,-190.061000,-5.771000,20.962000,29.47
6.465345,0.918000,2.496000,0.925000,-124.962000,42.855000,-12.626000,29.52
6.475501,1.074000,1.028000,-1.936000,-82.458000,97.511000,-28.550000,29.38
6.485158,-0.057000,-0.229000,-2.729000,-81.160000,2.824000,-49.099000,29.38
6.494970,-0.250000,-0.751000,-1.102000,-50.046000,35.679000,-86.351000,29.38
6.505131,0.289000,-0.561000,0.103000,-33.466000,119.344000,-98.183000,29.52
6.515572,1.689000,-0.168000,-1.979000,-6.519000,176.092000,-73.038000,29.42
6.526655,1.228000,0.625000,-2.228000,-12.718000,131.588000,-63.008000,29.47
6.535599,0.685000,0.482000,-1.849000,-16.748000,106.321000,-78.351000,29.38
6.545599,0.874000,-0.396000,-1.421000,-9.374000,100.840000,-50.687000,29.33
6.555537,0.793000,-0.560000,-1.036000,-18.427000,110.840000,-31.954000,29.42
6.566004,0.703000,-0.480000,-1.098000,-24.656000,105.771000,-22.550000,29.47
6.576068,0.576000,-0.529000,-0.934000,-4.076000,92.550000,-24.290000,29.47
6.586951,0.592000,-0.644000,-0.376000,-31.084000,278.321000,-40.794000,29.33
6.595228,0.544000,-0.457000,-0.913000,18.855000,243.802000,-69.374000,29.42
6.604922,0.580000,-0.426000,-0.927000,-15.069000,129.603000,-55.481000,29.47
6.614824,0.744000,-0.444000,-0.965000,-30.763000,70.076000,-42.412000,29.47
6.624872,0.589000,-0.285000,-0.960000,-70.672000,-0.565000,-17.908000,29.52
6.634912,0.576000,-0.160000,-1.040000,-55.725000,-70.458000,-13.725000,29.42
6.644892,0.561000,-0.126000,-0.969000,-44.519000,-71.237000,-2.702000,29.38
6.654877,0.539000,-0.196000,-0.937000,-23.328000,-42.656000,-1.618000,29.38
6.664903,0.563000,-0.195000,-0.910000,0.565000,-20.718000,-4.718000,29.38
6.674936,0.511000,-0.250000,-0.840000,12.458000,1.023000,-6.489000,29.42
6.684909,0.505000,-0.313000,-0.839000,9.008000,21.008000,-8.290000,29.38
6.694926,0.491000,-0.352000,-0.786000,4.992000,32.122000,-12.214000,29.38
6.704994,0.467000,-0.334000,-0.728000,6.702000,33.313000,-18.809000,29.47
6.715098,0.509000,-0.365000,-0.814000,3.618000,10.427000,-26.137000,29.42
6.725161,0.475000,-0.371000,-0.779000,-24.183000,24.718000,-27.756000,29.33
6.735063,0.490000,-0.356000,-0.780000,-31.634000,3.298000,-33.252000,29.47
6.744925,0.491000,-0.307000,-0.785000,-49.740000,3.084000,-34.916000,29.47
6.754925,0.416000,-0.397000,-0.774000,-53.206000,-4.901000,-38.977000,29.52
6.764963,0.466000,-0.267000,-0.768000,-61.832000,0.000000,-40.855000,29.42
6.774900,0.515000,-0.201000,-0.778000,-43.725000,4.427000,-42.672000,29.47
6.784929,0.508000,-0.185000,-0.879000,-56.092000,13.435000,-38.427000,29.38
6.794951,0.528000,-0.151000,-0.855000,-52.687000,26.687000,-36.840000,29.42
6.805010,0.458000,0.005000,-0.917000,-40.443000,24.321000,-39.740000,29.42
6.815001,0.477000,-0.383000,-0.743000,-30.870000,23.802000,-39.298000,29.38
6.825019,0.526000,-0.168000,-0.831000,-26.977000,32.489000,-40.519000,29.47
6.835023,0.534000,-0.107000,-0.879000,-26.840000,38.977000,-37.084000,29.42
6.844974,0.640000,-0.102000,-0.834000,-20.748000,53.252000,-29.435000,29.47
6.855016,0.520000,-0.065000,-0.873000,-17.908000,62.336000,-23.771000,29.47
6.865183,0.481000,-0.141000,-0.860000,-12.855000,72.718000,-20.656000,29.47
6.875103,0.515000,-0.163000,-0.866000,-12.534000,89.160000,-19.603000,29.33
6.885120,0.552000,-0.176000,-0.852000,-10.229000,106.412000,-19.618000,29.52
6.895107,0.540000,-0.164000,-0.860000,-8.748000,123.847000,-20.870000,29.47
6.905216,0.518000,-0.157000,-0.842000,-8.672000,143.023000,-25.328000,29.47
6.915237,0.472000,-0.128000,-0.814000,-7.649000,159.053000,-33.008000,29.42
6.925222,0.454000,-0.153000,-0.807000,-19.695000,180.916000,-39.374000,29.42
6.935160,0.476000,-0.127000,-0.787000,-12.260000,189.924000,-46.244000,29.38
6.945184,0.479000,-0.131000,-0.784000,-13.450000,211.710000,-55.634000,29.38
6.955197,0.583000,-0.072000,-0.769000,-8.321000,234.412000,-66.748000,29.52
6.965227,0.511000,-0.081000,-0.798000,-20.656000,260.687000,-75.389000,29.42
6.975248,0.632000,-0.288000,-0.904000,-41.695000,274.916000,-89.435000,29.47
6.985258,0.895000,-0.327000,-1.005000,-56.550000,311.191000,-103.939000,29.38
6.995115,0.932000,-0.350000,-1.071000,-47.573000,339.298000,-126.046000,29.42
7.005180,1.310000,-0.341000,-1.383000,-30.611000,402.656000,-136.092000,29.47
7.015221,2.140000,-0.417000,-1.778000,36.580000,473.511000,-133.588000,29.47
7.025416,2.437000,-0.465000,-2.386000,100.107000,500.260000,-142.168000,29.47
7.035507,2.231000,-0.358000,-2.145000,75.359000,500.260000,-185.878000,29.42
7.045314,2.584000,-0.761000,-2.753000,-52.168000,500.260000,-211.588000,29.42
7.055385,1.533000,-1.062000,-2.511000,-91.740000,378.779000,-200.336000,29.47
7.065308,0.771000,-2.306000,-3.357000,-56.702000,241.115000,-133.267000,29.47
7.075278,0.625000,-4.000000,-3.806000,-0.992000,116.763000,5.160000,29.42
7.085166,1.842000,-2.895000,-4.000000,-77.008000,115.893000,32.870000,29.42
7.094998,-0.654000,-2.103000,-2.001000,-177.481000,-271.344000,71.084000,29.47
7.105207,-0.568000,-0.725000,-1.928000,-97.206000,-454.427000,66.702000,29.47
7.115192,-0.509000,-0.072000,-2.040000,-53.084000,-341.771000,57.420000,29.47
7.125188,-0.354000,-0.340000,-1.959000,-8.092000,-239.802000,29.435000,29.42
7.135203,-0.197000,-0.629000,-1.742000,10.351000,-194.611000,-0.473000,29.33
7.145299,0.135000,-0.594000,-2.022000,-16.641000,-189.573000,-29.176000,29.47
7.155417,0.467000,-0.362000,-1.572000,-17.817000,-328.504000,-60.000000,29.47
7.165338,0.533000,-0.268000,-1.230000,9.893000,-373.252000,-70.901000,29.33
7.175488,0.650000,-0.262000,-0.965000,49.115000,-383.191000,-73.267000,29.42
7.185410,0.751000,-0.361000,-0.755000,96.977000,-407.053000,-69.985000,29.47
7.195546,0.813000,-0.571000,-0.598000,119.023000,-385.374000,-53.649000,29.38
7.205378,0.855000,-0.692000,-0.510000,124.901000,-336.198000,-25.603000,29.33
7.215282,0.938000,-0.730000,-0.622000,119.557000,-296.916000,10.366000,29.38
7.225265,1.017000,-0.722000,-0.750000,124.336000,-257.023000,45.634000,29.47
7.235353,1.071000,-0.520000,-0.874000,146.107000,-241.603000,75.298000,29.38
7.245283,1.206000,-0.241000,-0.566000,165.099000,-257.542000,99.130000,29.33
7.255411,1.291000,-0.266000,-1.089000,171.298000,-269.115000,116.885000,29.42
7.265328,1.321000,-0.264000,-1.228000,167.924000,-241.435000,130.595000,29.47
7.275436,1.456000,-0.245000,-1.243000,157.298000,-231.573000,145.023000,29.47
7.285240,1.606000,-0.174000,-1.271000,155.298000,-228.977000,163.282000,29.42
7.295006,1.722000,0.015000,-1.309000,148.748000,-215.527000,183.588000,29.42
7.305058,1.891000,0.212000,-1.354000,144.290000,-207.084000,198.611000,29.38
7.315062,2.062000,0.479000,-1.335000,139.496000,-202.458000,205.115000,29.47
7.324968,2.150000,0.794000,-1.263000,134.382000,-195.084000,197.832000,29.42
7.334913,2.316000,1.042000,-1.187000,126.275000,-175.176000,178.260000,29.42
7.344987,2.567000,1.164000,-1.183000,120.229000,-156.595000,156.504000,29.38
7.355250,2.809000,1.149000,-1.038000,106.351000,-137.267000,138.290000,29.38
7.364868,2.958000,1.035000,-0.756000,99.969000,-132.931000,123.908000,29.33
7.374795,3.104000,0.988000,-0.276000,80.000000,-163.649000,113.863000,29.38
7.384873,3.002000,1.030000,0.385000,70.137000,-145.145000,103.298000,29.47
7.394848,2.802000,1.229000,0.906000,94.061000,-202.061000,90.733000,29.38
7.404864,2.890000,1.338000,1.590000,43.099000,-128.107000,87.053000,29.33
7.414775,2.828000,1.449000,1.044000,0.641000,-78.046000,78.580000,29.42
7.424855,2.921000,1.385000,0.708000,-27.221000,-178.275000,74.443000,29.38
7.434856,2.912000,1.295000,1.608000,-73.313000,44.229000,22.718000,29.38
7.444839,3.482000,1.656000,1.771000,-153.053000,139.206000,-2.779000,29.42
7.454961,0.458000,0.544000,-0.725000,-37.405000,68.550000,-14.870000,29.52
7.464843,1.048000,-0.299000,-3.107000,-62.519000,107.817000,-18.672000,29.38
7.474931,-0.467000,-0.884000,-1.816000,-65.298000,20.427000,-35.145000,29.42
7.484870,-0.147000,-0.351000,0.246000,42.198000,251.603000,-93.847000,29.42
7.494875,0.775000,0.246000,-0.575000,19.939000,129.115000,-66.412000,29.47
7.506922,1.432000,0.586000,-2.282000,31.924000,162.626000,-63.832000,29.38
7.515457,0.825000,1.077000,-2.157000,37.511000,162.779000,-78.031000,29.52
7.524939,0.731000,0.496000,-1.660000,58.565000,174.489000,-90.366000,29.52
7.534817,1.238000,-0.780000,-1.501000,58.198000,170.427000,-81.145000,29.38
7.544835,2.941000,-0.923000,0.950000,51.588000,484.656000,-87.939000,29.38
7.554874,1.201000,-0.862000,-1.364000,55.206000,-230.885000,-31.786000,29.38
7.564856,0.496000,-0.269000,-0.655000,-26.305000,56.336000,-29.389000,29.42
7.574828,0.841000,-0.535000,-1.094000,-31.328000,84.992000,-27.649000,29.42
7.585411,0.807000,-0.776000,-0.807000,-34.168000,-43.786000,-23.084000,29.38
7.597886,0.475000,-0.525000,-0.761000,-38.473000,-46.901000,-23.802000,29.38
7.607792,0.361000,-0.349000,-0.853000,-38.550000,-52.229000,-28.473000,29.42
7.615950,0.410000,-0.441000,-0.825000,-72.275000,-21.237000,-30.000000,29.42
7.628402,0.293000,-0.476000,-0.772000,-84.824000,-1.405000,-33.557000,29.47
7.635260,0.337000,-0.350000,-0.860000,-97.832000,-5.649000,-38.092000,29.47
7.646037,0.475000,-0.339000,-0.970000,-100.534000,-0.275000,-38.870000,29.33
7.656732,0.486000,-0.273000,-0.889000,-95.969000,30.229000,-35.573000,29.42
7.665633,0.543000,-0.140000,-1.118000,-62.290000,3.802000,-36.565000,29.47
7.675125,0.476000,-0.192000,-0.957000,-53.099000,-21.160000,-37.053000,29.38
7.685084,0.501000,-0.394000,-0.795000,-94.595000,4.290000,-24.092000,29.42
7.695769,0.513000,-0.314000,-1.044000,-48.687000,6.397000,-36.336000,29.57
7.705606,0.510000,-0.196000,-0.895000,-51.603000,13.771000,-36.412000,29.47
7.715413,0.502000,-0.182000,-0.920000,-40.779000,-7.115000,-35.634000,29.38
7.725392,0.433000,-0.208000,-0.878000,-35.038000,-12.229000,-36.931000,29.42
7.739015,0.444000,-0.181000,-0.919000,-35.756000,-9.038000,-35.771000,29.42
7.745731,0.431000,-0.169000,-0.894000,-35.573000,-1.969000,-33.344000,29.47
7.755807,0.501000,-0.107000,-0.956000,-25.924000,1.649000,-31.344000,29.38
7.767328,0.463000,-0.104000,-0.943000,-25.160000,-2.366000,-29.496000,29.52
7.775215,0.423000,-0.114000,-0.891000,-20.458000,9.160000,-28.641000,29.42
7.785826,0.395000,-0.059000,-0.804000,-21.344000,42.718000,-23.374000,29.38
7.795595,0.463000,-0.151000,-0.766000,-13.924000,76.092000,-21.588000,29.47
7.805633,0.462000,-0.105000,-0.912000,-12.382000,30.977000,-24.992000,29.33
7.815558,0.260000,0.151000,-0.975000,-9.023000,43.527000,-35.191000,29.42
7.825563,0.416000,-0.099000,-0.841000,-14.519000,50.321000,-25.038000,29.38
7.835521,0.458000,-0.171000,-0.864000,-9.817000,45.298000,-24.947000,29.38
7.845402,0.435000,-0.092000,-0.874000,-9.756000,61.069000,-24.122000,29.52
7.855448,0.475000,-0.139000,-0.907000,-10.000000,75.939000,-22.412000,29.61
7.865343,0.475000,-0.182000,-0.976000,-9.969000,87.695000,-23.481000,29.47
7.875432,0.498000,-0.218000,-0.954000,-12.733000,108.947000,-24.244000,29.47
7.885100,0.515000,-0.242000,-0.911000,-9.252000,139.420000,-30.015000,29.42
7.895474,0.421000,-0.192000,-0.931000,-16.412000,161.252000,-38.611000,29.42
7.905457,0.383000,-0.129000,-0.859000,-28.397000,189.649000,-51.603000,29.47
7.915404,0.356000,-0.075000,-0.871000,-39.221000,219.847000,-67.817000,29.38
7.925398,0.424000,-0.038000,-0.839000,-41.298000,239.496000,-77.542000,29.47
7.935421,0.523000,-0.041000,-0.914000,-34.183000,250.748000,-87.481000,29.42
7.945390,0.404000,-0.183000,-0.871000,-42.824000,260.916000,-108.550000,29.42
7.955416,0.443000,-0.113000,-0.777000,-66.779000,286.412000,-132.275000,29.38
7.965260,0.680000,-0.101000,-0.890000,-90.000000,316.519000,-158.870000,29.47
7.975324,0.946000,-0.284000,-1.114000,-108.656000,336.885000,-177.435000,29.52
7.985438,1.148000,-0.369000,-1.141000,-106.412000,356.153000,-199.893000,29.42
7.995373,1.646000,-0.361000,-1.521000,-105.298000,420.763000,-166.046000,29.47
8.005351,1.994000,-0.626000,-2.200000,-31.374000,451.573000,-170.977000,29.47
8.015509,2.319000,-0.408000,-2.206000,-17.725000,416.214000,-185.405000,29.52
8.025426,2.807000,-0.489000,-1.518000,-237.084000,500.260000,-202.244000,29.33
8.035388,2.025000,-0.773000,-1.768000,-136.061000,463.298000,-240.748000,29.47
8.045389,1.341000,-0.919000,-3.689000,-81.664000,167.557000,-213.893000,29.47
8.055271,-1.460000,-2.010000,-2.773000,18.244000,-9.756000,-81.206000,29.33
8.065281,2.352000,-3.284000,-4.000000,54.214000,87.588000,2.489000,29.33
8.075292,0.093000,-2.777000,-2.664000,-62.183000,-175.786000,34.519000,29.47
8.085315,-0.848000,-1.977000,-1.220000,-141.435000,-238.153000,67.466000,29.38
8.095377,-0.454000,-1.215000,-1.377000,-124.473000,-251.771000,71.863000,29.52
8.105282,-0.342000,-0.767000,-1.563000,-70.031000,-239.313000,80.931000,29.42
8.115277,-0.346000,-0.676000,-1.570000,-22.382000,-193.496000,84.885000,29.28
8.125392,-0.061000,-0.706000,-1.597000,12.458000,-190.473000,75.893000,29.38
8.135376,0.212000,-0.716000,-1.820000,33.221000,-273.405000,55.771000,29.38
8.145400,0.376000,-0.539000,-1.442000,39.115000,-250.443000,44.214000,29.52
8.155304,0.566000,-0.372000,-1.340000,53.878000,-297.115000,43.405000,29.42
8.165236,0.640000,-0.257000,-1.121000,76.412000,-323.023000,45.771000,29.47
8.175330,0.710000,-0.260000,-1.028000,89.542000,-328.168000,47.130000,29.47
8.185327,0.765000,-0.221000,-0.892000,123.725000,-331.344000,40.504000,29.42
8.195376,0.967000,-0.282000,-0.888000,139.466000,-321.817000,40.901000,29.52
8.205331,0.983000,-0.253000,-0.916000,145.282000,-316.672000,44.901000,29.47
8.215322,0.996000,-0.198000,-0.977000,152.702000,-302.489000,48.901000,29.47
8.225359,1.046000,-0.139000,-1.107000,164.122000,-273.191000,55.786000,29.42
8.235447,1.284000,-0.013000,-1.056000,194.824000,-280.366000,64.870000,29.52
8.245471,1.027000,-0.117000,-1.054000,194.229000,-262.870000,75.084000,29.38
8.255522,1.323000,-0.227000,-1.182000,201.130000,-237.786000,97.191000,29.47
8.265367,1.333000,-0.195000,-1.211000,209.344000,-231.023000,122.275000,29.52
8.275362,1.637000,-0.124000,-1.014000,203.496000,-222.107000,138.885000,29.47
8.285464,1.882000,0.122000,-1.095000,192.916000,-199.344000,153.008000,29.38
8.295336,1.918000,0.256000,-1.050000,188.137000,-182.321000,160.992000,29.38
8.305407,2.094000,0.471000,-0.966000,191.206000,-150.473000,159.969000,29.33
8.315356,2.268000,0.582000,-0.920000,181.389000,-120.183000,164.947000,29.42
8.325417,2.594000,0.754000,-1.141000,177.237000,-134.290000,157.282000,29.38
8.335264,2.531000,0.923000,-1.399000,112.611000,-37.603000,163.679000,29.42
8.345306,2.763000,1.200000,-0.795000,139.756000,-185.160000,142.534000,29.42
8.355305,2.518000,1.363000,-0.129000,149.542000,-122.947000,129.710000,29.47
8.365390,2.544000,1.378000,0.083000,145.847000,-119.618000,118.534000,29.38
8.375509,2.443000,1.323000,0.484000,133.893000,-78.427000,108.000000,29.33
8.385351,2.265000,1.605000,0.603000,83.237000,8.290000,98.794000,29.52
8.395453,2.481000,0.936000,0.775000,132.214000,-4.076000,79.115000,29.38
8.405287,2.652000,0.661000,0.372000,68.840000,-68.763000,93.832000,29.47
8.415281,2.503000,0.643000,0.711000,63.069000,94.229000,87.985000,29.42
8.425413,2.077000,-0.989000,1.061000,-6.183000,78.137000,121.664000,29.33
8.435330,2.752000,1.019000,1.403000,-173.603000,82.656000,62.458000,29.38
8.445480,1.333000,2.101000,0.412000,-166.947000,115.695000,36.580000,29.38
8.455518,0.947000,0.111000,-2.273000,-131.817000,107.695000,19.466000,29.42
8.465350,0.149000,0.588000,-3.485000,-159.466000,20.458000,-27.542000,29.33
8.475410,-0.804000,1.188000,-2.106000,-84.733000,11.771000,-86.015000,29.47
8.485316,0.331000,1.565000,-0.820000,-68.595000,93.527000,-164.473000,29.47
8.495429,2.864000,-0.623000,-3.015000,-62.122000,46.229000,-128.763000,29.42
8.505275,1.185000,-0.459000,-1.234000,-73.221000,109.435000,-66.015000,29.42
8.515278,0.164000,-0.048000,-1.115000,-49.115000,97.710000,-54.901000,29.47
8.525309,0.548000,0.245000,-1.308000,-79.130000,500.260000,-62.061000,29.38
8.535331,1.244000,-0.387000,-1.801000,-219.023000,500.260000,-48.672000,29.42
8.545337,2.255000,-1.011000,-0.548000,-50.137000,-72.504000,-23.450000,29.33
8.555270,0.649000,-0.425000,-0.836000,80.809000,-480.947000,-17.206000,29.47
8.565127,0.575000,-0.490000,-1.125000,-26.229000,-91.191000,-14.580000,29.38
8.575305,0.499000,-0.499000,-0.765000,-23.954000,-60.611000,-20.290000,29.42
8.585311,-0.679000,-0.366000,-0.313000,-41.924000,21.496000,-27.267000,29.42
8.595240,0.388000,-0.315000,-0.880000,-55.084000,-28.824000,-22.992000,29.38
8.605169,0.400000,-0.196000,-0.951000,-56.046000,39.679000,-26.000000,29.38
8.615213,0.489000,-0.035000,-1.011000,-52.168000,58.412000,-22.229000,29.33
8.625183,0.434000,-0.179000,-0.858000,-37.252000,32.656000,-22.611000,29.42
8.635298,0.436000,-0.292000,-0.873000,-42.687000,20.748000,-22.473000,29.38
8.645310,0.501000,-0.352000,-0.848000,-46.427000,20.443000,-24.366000,29.47
8.655357,0.493000,-0.393000,-0.833000,-45.511000,2.137000,-28.687000,29.42
8.665169,0.494000,-0.302000,-0.895000,-41.038000,2.504000,-31.634000,29.42
8.675268,0.485000,-0.302000,-0.872000,-39.573000,6.031000,-32.580000,29.47
8.685168,0.463000,-0.296000,-0.886000,-36.168000,-11.023000,-35.282000,29.38
8.695234,0.446000,-0.199000,-0.865000,-35.221000,-7.130000,-35.267000,29.33
8.705244,0.449000,-0.207000,-0.853000,-36.458000,18.870000,-34.489000,29.42
8.715310,0.410000,-0.235000,-0.881000,-37.771000,26.977000,-36.718000,29.42
8.725295,0.420000,-0.145000,-0.823000,-30.046000,17.008000,-37.008000,29.47
8.735263,0.562000,-0.059000,-1.144000,-12.702000,-5.313000,-34.916000,29.47
8.745299,0.494000,-0.152000,-0.868000,-25.496000,12.076000,-33.863000,29.52
8.755237,0.478000,-0.145000,-0.819000,-15.664000,31.893000,-35.359000,29.38
8.765198,0.464000,-0.165000,-0.802000,-23.649000,34.779000,-32.550000,29.47
8.775318,0.563000,-0.155000,-0.823000,-23.328000,46.550000,-28.565000,29.47
8.785282,0.457000,-0.095000,-0.664000,-32.214000,128.183000,-20.641000,29.52
8.795338,0.517000,-0.058000,-0.832000,-13.924000,35.557000,-24.611000,29.42
8.805292,0.473000,-0.142000,-0.811000,-17.878000,62.947000,-19.237000,29.47
8.815230,0.525000,-0.095000,-0.853000,-17.740000,83.420000,-14.840000,29.47
8.825290,0.491000,-0.156000,-0.886000,-14.214000,77.145000,-15.481000,29.52
8.835350,0.463000,-0.123000,-0.859000,-19.985000,102.473000,-15.603000,29.52
8.845236,0.504000,-0.142000,-0.834000,-21.450000,138.290000,-15.969000,29.38
8.855215,0.387000,-0.207000,-0.803000,-13.786000,166.992000,-11.176000,29.47
8.865032,0.375000,-0.146000,-0.594000,-22.336000,202.519000,-29.954000,29.42
8.875054,0.466000,-0.147000,-0.685000,-47.557000,265.603000,-36.626000,29.42
8.884959,0.344000,0.198000,-1.426000,-22.305000,265.389000,-51.176000,29.47
8.894996,0.516000,-0.127000,-0.670000,-10.794000,204.534000,-64.550000,29.38
8.905084,0.500000,-0.035000,-0.740000,-24.061000,258.046000,-72.519000,29.42
8.914999,0.509000,-0.152000,-0.758000,-34.855000,260.214000,-88.092000,29.47
8.925103,0.581000,-0.152000,-0.827000,-58.336000,261.191000,-100.031000,29.38
8.935043,0.942000,-0.246000,-0.840000,-63.985000,311.802000,-116.168000,29.38
8.944913,1.114000,-0.143000,-0.941000,-47.802000,344.122000,-132.061000,29.33
8.955025,1.192000,-0.204000,-1.256000,-42.427000,335.221000,-102.321000,29.42
8.964831,1.371000,-0.152000,-1.482000,-53.649000,437.786000,-110.504000,29.47
8.974827,2.173000,-0.174000,-2.215000,-38.305000,500.260000,-116.733000,29.47
8.984816,2.471000,-0.351000,-2.018000,19.313000,500.260000,-142.504000,29.42
8.995028,2.553000,-0.622000,-2.593000,83.725000,500.260000,-155.603000,29.52
9.005184,1.890000,-0.747000,-2.336000,64.137000,428.870000,-169.985000,29.47
9.015062,0.876000,-1.109000,-2.060000,-28.443000,296.382000,-176.122000,29.38
9.025036,0.711000,-1.438000,-3.499000,-34.122000,234.397000,-134.794000,29.42
9.035117,0.861000,-2.291000,-3.499000,76.763000,110.214000,-106.107000,29.42
9.045128,2.754000,-2.969000,-4.000000,-99.466000,260.183000,-50.412000,29.47
9.055291,0.127000,-2.268000,-1.939000,-104.489000,-500.275000,-66.580000,29.38
9.065212,-0.645000,-1.471000,-1.588000,-207.985000,-411.313000,-42.244000,29.42
9.075217,-0.510000,-0.794000,-1.266000,-147.160000,-411.863000,-31.511000,29.47
9.085365,-0.474000,-0.926000,-1.388000,-100.351000,-284.672000,11.481000,29.47
9.095423,0.039000,-0.608000,-1.495000,29.695000,-319.450000,-13.756000,29.47
9.105362,0.238000,-0.786000,-1.612000,65.908000,-212.382000,-8.382000,29.52
9.115290,0.565000,-0.866000,-1.363000,90.061000,-190.916000,-14.046000,29.42
9.125386,0.768000,-0.791000,-1.240000,72.824000,-298.748000,-14.153000,29.38
9.135360,0.953000,-0.648000,-0.830000,69.664000,-383.359000,-8.458000,29.47
9.145460,1.013000,-0.412000,-0.926000,77.298000,-409.328000,-1.115000,29.42
9.155390,0.992000,-0.318000,-0.776000,129.756000,-408.687000,1.878000,29.42
9.165243,0.968000,-0.350000,-0.621000,165.969000,-376.290000,8.443000,29.38
9.175457,1.074000,-0.438000,-0.450000,191.771000,-327.145000,25.053000,29.38
9.185437,1.843000,-0.320000,-0.285000,189.023000,-218.168000,65.511000,29.42
9.195420,1.131000,-0.122000,-0.514000,216.763000,-294.183000,82.763000,29.52
9.210687,1.235000,0.082000,-0.873000,214.656000,-220.366000,115.832000,29.47
9.215890,1.259000,0.184000,-0.903000,218.031000,-225.634000,121.115000,29.38
9.228051,1.028000,0.226000,-1.106000,223.756000,-228.198000,117.206000,29.42
9.237426,1.561000,0.384000,-1.398000,231.573000,-167.679000,123.328000,29.47
9.245069,1.602000,0.327000,-1.341000,231.160000,-195.435000,115.511000,29.47
9.254845,1.763000,0.191000,-1.173000,216.275000,-220.733000,108.260000,29.47
9.264820,2.007000,0.265000,-1.048000,180.061000,-211.160000,113.573000,29.42
9.274935,2.132000,0.396000,-0.880000,164.595000,-225.924000,122.931000,29.42
9.284908,2.190000,0.538000,-0.770000,156.458000,-210.305000,134.626000,29.47
9.294906,2.223000,0.813000,-0.782000,156.061000,-200.519000,141.924000,29.47
9.304953,2.160000,1.089000,-0.631000,127.573000,-156.351000,152.351000,29.33
9.314932,2.257000,1.406000,-1.124000,172.000000,-274.611000,135.405000,29.42
9.324955,2.421000,1.456000,-0.696000,133.023000,-116.595000,123.618000,29.38
9.334963,2.585000,1.461000,-0.675000,120.885000,-105.496000,108.672000,29.47
9.344969,2.679000,1.388000,-0.385000,100.504000,-98.702000,100.901000,29.42
9.354953,2.667000,1.259000,0.037000,71.924000,-79.038000,99.710000,29.33
9.365021,2.538000,1.071000,0.513000,-39.298000,72.870000,138.198000,29.47
9.375016,3.025000,1.032000,0.907000,43.053000,-139.588000,95.924000,29.38
9.385141,2.395000,1.107000,0.949000,23.817000,-79.191000,110.962000,29.42
9.395026,3.253000,0.694000,1.334000,-98.885000,7.725000,121.908000,29.47
9.405137,2.765000,1.932000,2.043000,-128.458000,-34.641000,98.611000,29.38
9.415142,0.094000,1.231000,0.445000,-43.344000,105.267000,61.420000,29.38
9.425143,1.148000,0.792000,-3.305000,-94.504000,108.794000,-0.824000,29.42
9.435236,-0.776000,0.912000,-3.325000,-58.626000,-141.802000,-26.153000,29.42
9.445133,-0.839000,0.705000,-1.004000,-2.595000,-219.435000,-53.527000,29.47
9.455159,0.380000,0.090000,-0.277000,14.015000,-65.847000,-124.473000,29.38
9.464913,1.811000,-0.463000,-2.806000,34.809000,52.733000,-103.603000,29.42
9.475044,1.373000,-0.530000,-2.085000,-28.000000,67.191000,-82.137000,29.42
9.484877,0.702000,-0.228000,-1.626000,-29.893000,117.328000,-69.038000,29.38
9.494835,0.466000,-0.240000,-1.260000,-34.260000,242.840000,-57.573000,29.38
9.504877,0.543000,-0.153000,-1.182000,-18.000000,252.687000,-65.008000,29.42
9.514786,0.730000,-0.623000,-1.067000,8.885000,159.924000,-48.855000,29.42
9.525243,0.481000,-0.762000,-2.190000,12.809000,375.618000,-79.527000,29.47
9.534859,1.147000,-0.971000,-2.464000,-193.405000,500.260000,-44.947000,29.57
9.544826,1.154000,-0.361000,-0.763000,26.321000,-155.450000,-29.649000,29.42
9.554890,0.518000,-0.360000,-0.681000,45.878000,-328.779000,-18.489000,29.38
9.564799,0.388000,-0.458000,-0.887000,0.519000,-270.290000,-15.389000,29.47
9.574789,0.575000,-0.358000,-0.966000,-48.092000,-79.145000,-22.351000,29.38
9.584961,0.430000,-0.319000,-0.863000,-56.809000,-119.206000,-26.015000,29.42
9.595118,0.234000,-0.390000,-1.321000,-82.015000,56.397000,-37.405000,29.42
9.605290,0.408000,-0.356000,-0.923000,-105.969000,90.748000,-33.389000,29.47
9.615250,0.528000,-0.138000,-1.084000,-94.824000,117.634000,-35.038000,29.47
9.625231,0.541000,-0.247000,-0.926000,-58.321000,34.290000,-35.069000,29.33
9.635237,0.487000,-0.298000,-0.860000,-46.137000,-22.260000,-33.466000,29.42
9.645319,0.490000,-0.311000,-0.888000,-45.573000,-33.863000,-33.725000,29.38
9.655517,0.429000,-0.214000,-0.852000,-48.702000,-13.435000,-33.863000,29.47
9.665375,0.473000,-0.227000,-0.864000,-48.122000,-4.351000,-34.076000,29.33
9.675323,0.457000,-0.216000,-0.880000,-44.870000,-6.336000,-35.008000,29.42
9.685309,0.441000,-0.206000,-0.858000,-50.580000,19.298000,-34.351000,29.47
9.695477,0.430000,-0.183000,-0.963000,-38.641000,-11.740000,-37.160000,29.47
9.705611,0.484000,-0.135000,-1.061000,-21.817000,-64.443000,-39.985000,29.33
9.715425,0.408000,-0.153000,-0.891000,-36.977000,32.504000,-32.947000,29.38
9.725610,0.416000,-0.056000,-0.718000,-24.962000,-27.863000,-33.481000,29.38
9.735518,0.111000,-0.308000,0.336000,-74.534000,225.847000,-28.931000,29.38
9.745297,0.380000,-0.195000,-1.017000,-47.145000,187.573000,-20.183000,29.33
9.755599,0.530000,-0.184000,-0.935000,-19.344000,-24.931000,-30.870000,29.42
9.765453,0.530000,-0.406000,-0.794000,-29.817000,33.130000,-23.573000,29.47
9.775543,0.524000,-0.047000,-0.903000,-13.405000,20.275000,-26.824000,29.38
9.785628,0.457000,-0.133000,-0.868000,-12.702000,24.809000,-23.481000,29.42
9.795363,0.494000,-0.119000,-0.872000,-19.695000,55.649000,-21.176000,29.52
9.805465,0.498000,-0.075000,-0.896000,-19.389000,68.519000,-18.183000,29.47
9.815424,0.475000,-0.096000,-0.890000,-15.282000,78.382000,-17.298000,29.47
9.825503,0.477000,-0.151000,-0.895000,-13.145000,86.595000,-16.748000,29.52
9.835430,0.507000,-0.175000,-0.860000,-14.366000,96.107000,-15.832000,29.42
9.845486,0.468000,-0.187000,-0.909000,-20.473000,112.916000,-17.954000,29.38
9.855691,0.482000,-0.157000,-0.845000,-25.053000,138.321000,-21.542000,29.38
9.865480,0.446000,-0.133000,-0.885000,-31.893000,167.863000,-30.504000,29.33
9.875583,0.354000,-0.136000,-0.838000,-44.962000,185.069000,-47.649000,29.47
9.885454,0.451000,-0.071000,-0.832000,-57.725000,214.748000,-56.092000,29.47
9.895321,0.453000,-0.044000,-0.880000,-53.695000,224.534000,-66.015000,29.38
9.905539,0.536000,-0.077000,-0.845000,-52.214000,239.374000,-77.618000,29.33
9.915354,0.451000,-0.088000,-0.949000,-46.824000,260.443000,-98.046000,29.42
9.925440,0.480000,-0.165000,-0.802000,-69.130000,261.267000,-129.420000,29.38
9.935481,0.667000,-0.121000,-0.856000,-84.626000,306.031000,-155.130000,29.38
9.945347,0.964000,-0.245000,-0.949000,-111.084000,349.588000,-176.916000,29.42
9.955469,1.417000,-0.231000,-1.200000,-115.298000,373.023000,-136.290000,29.33
9.965352,1.476000,-0.342000,-1.616000,-118.137000,393.038000,-149.298000,29.47
9.975579,2.029000,-0.578000,-1.992000,-80.260000,500.260000,-165.221000,29.38
9.985631,2.211000,-0.774000,-2.531000,11.008000,465.130000,-186.000000,29.52
9.995680,2.134000,-0.573000,-1.839000,-75.405000,330.947000,-256.641000,29.52
10.007167,2.006000,-0.680000,-2.111000,-160.901000,326.458000,-237.985000,29.47
