# Gait Analysis Data - MPU6050 IMU
# Duration: 10 seconds
# Format: timestamp(s),ax(g),ay(g),az(g),gx(deg/s),gy(deg/s),gz(deg/s),temp(C)
# Note: Document sensor placement (ankle/wrist) separately
timestamp,ax,ay,az,gx,gy,gz,temp
0.000587,0.511000,-0.109000,-0.755000,-23.573000,202.534000,-33.679000,30.51
0.001199,0.600000,-0.108000,-0.828000,-16.916000,209.008000,-37.206000,30.51
0.001727,0.548000,-0.109000,-0.758000,-7.618000,219.924000,-39.832000,30.46
0.002254,0.577000,-0.107000,-0.738000,-9.527000,240.901000,-45.771000,30.55
0.002764,0.728000,-0.165000,-0.817000,-14.870000,263.023000,-54.733000,30.51
0.003343,0.625000,-0.308000,-0.846000,-24.366000,275.649000,-73.420000,30.51
0.003902,0.913000,-0.356000,-0.943000,-35.450000,293.313000,-90.214000,30.51
0.004440,0.963000,-0.375000,-0.962000,-33.160000,314.122000,-108.931000,30.55
0.005261,1.359000,-0.490000,-1.219000,-2.855000,352.443000,-124.153000,30.60
0.006532,1.941000,-0.613000,-1.863000,60.626000,339.084000,-109.634000,30.51
0.007655,2.219000,-0.573000,-1.981000,91.405000,327.420000,-105.023000,30.41
0.008527,2.153000,-0.427000,-1.671000,64.962000,372.580000,-129.527000,30.51
0.009246,2.074000,-0.426000,-1.826000,32.000000,310.397000,-153.282000,30.46
0.010142,1.127000,-0.509000,-1.972000,-0.321000,264.473000,-157.527000,30.51
0.011024,0.374000,-0.857000,-1.727000,1.328000,181.771000,-132.489000,30.51
0.011800,0.125000,-3.075000,-3.614000,18.244000,89.450000,-23.313000,30.51
0.012457,1.689000,-2.884000,-4.000000,-94.534000,-81.863000,7.649000,30.51
0.013338,-1.299000,-1.864000,-1.648000,-152.580000,-177.664000,47.756000,30.55
0.014288,-0.671000,-0.944000,-1.828000,-119.802000,-172.305000,57.511000,30.51
0.015058,-0.424000,-0.472000,-1.738000,-66.733000,-176.366000,67.176000,30.41
0.015652,-0.390000,-0.608000,-1.526000,-15.908000,-191.435000,74.809000,30.51
0.016302,-0.224000,-0.706000,-1.369000,-2.137000,-231.893000,68.229000,30.51
0.016881,-0.156000,-0.626000,-1.222000,-17.969000,-249.893000,44.092000,30.46
0.017435,0.150000,-0.318000,-1.140000,-32.626000,-273.435000,26.183000,30.60
0.017945,0.397000,-0.281000,-1.301000,-16.992000,-283.328000,-2.076000,30.51
0.018461,0.487000,-0.163000,-1.076000,-0.916000,-299.344000,-14.229000,30.51
0.018942,0.616000,-0.331000,-0.984000,21.740000,-300.626000,-16.763000,30.46
0.019414,0.735000,-0.543000,-0.891000,42.458000,-304.947000,-8.336000,30.46
0.019891,0.827000,-0.730000,-0.805000,50.870000,-304.565000,11.450000,30.51
0.020360,0.934000,-0.855000,-0.760000,48.214000,-290.000000,38.305000,30.51
0.020819,0.990000,-0.774000,-0.798000,53.008000,-263.053000,68.092000,30.51
0.021283,1.108000,-0.637000,-0.830000,60.611000,-251.237000,99.267000,30.55
0.021973,1.182000,-0.552000,-0.872000,71.191000,-235.099000,125.450000,30.55
0.022489,1.305000,-0.523000,-0.796000,79.328000,-197.130000,140.565000,30.51
0.022959,1.581000,-0.567000,-0.987000,76.000000,-228.809000,154.656000,30.60
0.023452,1.420000,-0.557000,-0.848000,62.412000,-210.504000,163.511000,30.60
0.023903,1.611000,-0.548000,-0.931000,51.649000,-196.336000,173.176000,30.46
0.024352,1.792000,-0.468000,-0.964000,41.115000,-188.580000,182.870000,30.46
0.024801,1.936000,-0.411000,-0.893000,44.504000,-175.053000,188.366000,30.60
0.025409,2.045000,-0.160000,-0.811000,63.053000,-176.336000,187.023000,30.41
0.025989,2.035000,-0.033000,-0.716000,56.153000,-150.107000,181.756000,30.51
0.026431,2.011000,0.266000,-0.696000,69.908000,-155.557000,170.137000,30.55
0.026872,1.775000,0.417000,-0.646000,91.450000,-131.710000,157.237000,30.55
0.027310,2.099000,0.292000,-0.270000,92.244000,-123.099000,138.901000,30.60
0.027749,2.591000,0.338000,-0.534000,88.992000,-100.244000,117.679000,30.51
0.028215,2.417000,0.585000,-0.414000,89.038000,-125.679000,101.542000,30.60
0.028680,2.335000,0.766000,-0.433000,96.366000,-119.344000,85.145000,30.46
0.029137,2.123000,0.757000,-0.156000,97.603000,-127.786000,62.962000,30.55
0.029571,1.827000,0.782000,0.261000,97.756000,-108.626000,37.588000,30.51
0.029999,1.899000,0.693000,0.455000,94.794000,-88.779000,18.458000,30.51
0.030421,1.760000,0.516000,0.576000,72.534000,-61.527000,0.015000,30.51
0.030907,1.762000,0.340000,0.740000,33.664000,-27.695000,-16.198000,30.46
0.031334,1.848000,0.383000,0.714000,-18.397000,2.611000,-36.168000,30.46
0.031769,1.952000,0.487000,0.759000,-56.809000,37.328000,-46.855000,30.41
0.032217,2.088000,0.606000,1.222000,-93.191000,91.847000,-49.954000,30.51
0.032663,0.566000,0.813000,1.358000,-76.702000,148.122000,-49.863000,30.46
0.033103,1.112000,-0.304000,-1.649000,-47.695000,191.206000,-20.931000,30.55
0.033552,0.222000,-0.076000,-2.547000,-50.672000,141.267000,-56.672000,30.46
0.033997,-0.079000,0.429000,-1.458000,-7.313000,136.412000,-89.664000,30.51
0.034446,0.916000,0.263000,-0.995000,34.641000,185.374000,-108.748000,30.51
0.034872,2.508000,-1.029000,-2.169000,-6.473000,125.176000,-111.985000,30.55
0.035382,1.281000,-0.734000,-0.826000,-40.931000,66.412000,-79.527000,30.37
0.035803,0.582000,-0.485000,-0.990000,-58.565000,83.298000,-75.282000,30.41
0.036223,0.670000,-0.629000,-1.572000,-30.275000,73.008000,-79.939000,30.51
0.036669,0.744000,-0.119000,-0.851000,-33.573000,29.206000,-54.718000,30.60
0.037246,0.801000,-0.694000,-0.922000,-46.931000,50.122000,-41.771000,30.46
0.037719,0.612000,-0.410000,-0.819000,-54.947000,30.473000,-41.710000,30.46
0.038176,0.688000,-0.285000,-0.935000,-61.038000,45.191000,-37.298000,30.60
0.038646,0.590000,-0.401000,-0.905000,-61.374000,40.718000,-32.000000,30.51
0.039120,0.621000,-0.321000,-1.038000,-57.573000,34.550000,-27.084000,30.46
0.039589,0.544000,-0.303000,-0.955000,-50.046000,27.649000,-25.695000,30.46
0.040062,0.587000,-0.379000,-0.912000,-45.802000,28.153000,-25.328000,30.55
0.040528,0.571000,-0.351000,-0.886000,-45.496000,33.191000,-27.267000,30.51
0.040983,0.601000,-0.323000,-0.896000,-43.313000,32.015000,-28.611000,30.51
0.041436,0.580000,-0.258000,-0.825000,-35.908000,24.595000,-28.183000,30.46
0.041874,0.584000,-0.204000,-0.842000,-30.656000,21.527000,-26.824000,30.46
0.042318,0.541000,-0.236000,-0.816000,-29.527000,21.221000,-26.992000,30.55
0.042773,0.574000,-0.262000,-0.827000,-30.458000,23.023000,-27.832000,30.51
0.043230,0.604000,-0.203000,-0.840000,-30.427000,22.748000,-26.947000,30.51
0.043667,0.632000,-0.200000,-0.818000,-27.206000,19.282000,-24.885000,30.46
0.044104,0.606000,-0.168000,-0.833000,-23.832000,16.718000,-22.305000,30.65
0.044552,0.591000,-0.191000,-0.814000,-20.885000,15.847000,-19.847000,30.51
0.045002,0.600000,-0.193000,-0.810000,-17.954000,15.282000,-18.260000,30.51
0.045582,0.535000,-0.054000,-0.893000,-11.511000,14.489000,-17.939000,30.51
0.046040,0.637000,-0.183000,-0.807000,-13.603000,15.527000,-14.427000,30.46
0.046473,0.599000,-0.177000,-0.805000,-11.420000,14.260000,-12.947000,30.46
0.046907,0.583000,-0.195000,-0.798000,-9.969000,15.328000,-12.351000,30.51
0.047340,0.596000,-0.169000,-0.805000,-8.198000,14.611000,-10.595000,30.51
0.047787,0.595000,-0.173000,-0.802000,-6.321000,14.565000,-10.122000,30.46
0.048224,0.597000,-0.193000,-0.798000,-6.046000,14.092000,-10.168000,30.55
0.048654,0.612000,-0.184000,-0.801000,-7.084000,13.008000,-10.855000,30.55
0.049086,0.620000,-0.181000,-0.780000,-7.832000,11.145000,-10.733000,30.51
0.049514,0.606000,-0.158000,-0.782000,-7.756000,8.931000,-9.878000,30.51
0.049928,0.597000,-0.169000,-0.773000,-7.069000,7.359000,-8.855000,30.55
0.050357,0.606000,-0.186000,-0.787000,-5.969000,5.893000,-8.397000,30.46
0.050767,0.587000,-0.188000,-0.794000,-5.145000,5.038000,-8.504000,30.46
0.051179,0.590000,-0.178000,-0.799000,-4.580000,5.924000,-8.687000,30.51
0.051583,0.603000,-0.172000,-0.811000,-4.244000,6.534000,-7.344000,30.51
0.052008,0.621000,-0.152000,-0.816000,-3.878000,7.130000,-5.756000,30.55
0.052419,0.633000,-0.144000,-0.804000,-2.534000,6.427000,-3.221000,30.51
0.052841,0.670000,-0.122000,-0.809000,0.015000,4.198000,0.534000,30.41
0.053244,0.668000,-0.106000,-0.803000,2.962000,-1.802000,5.023000,30.41
0.053675,0.633000,-0.169000,-0.802000,4.565000,-6.061000,7.374000,30.41
0.054109,0.619000,-0.200000,-0.780000,4.473000,-9.130000,6.824000,30.55
0.054526,0.569000,-0.255000,-0.759000,2.458000,-9.954000,5.359000,30.51
0.054931,0.502000,-0.228000,-0.799000,-1.634000,-9.069000,1.344000,30.51
0.055510,0.536000,-0.287000,-0.788000,-6.336000,-6.183000,-2.962000,30.51
0.056144,0.579000,-0.235000,-0.823000,-8.962000,-0.809000,-6.122000,30.55
0.056647,0.556000,-0.196000,-0.826000,-9.664000,5.924000,-7.557000,30.46
0.057108,0.561000,-0.166000,-0.836000,-8.947000,6.565000,-7.435000,30.41
0.057542,0.568000,-0.146000,-0.810000,-8.015000,10.931000,-7.695000,30.41
0.058019,0.574000,-0.108000,-0.805000,-7.557000,11.695000,-4.977000,30.60
0.058462,0.558000,-0.105000,-0.813000,-6.061000,15.481000,-2.748000,30.46
0.058884,0.575000,-0.112000,-0.803000,-4.107000,18.198000,-1.069000,30.46
0.059321,0.582000,-0.117000,-0.787000,-2.290000,16.565000,1.221000,30.60
0.059761,0.586000,-0.153000,-0.805000,-1.313000,21.282000,2.626000,30.41
0.060190,0.567000,-0.160000,-0.787000,-1.435000,24.824000,2.885000,30.41
0.060608,0.565000,-0.177000,-0.797000,-2.840000,27.511000,2.076000,30.46
0.061034,0.568000,-0.174000,-0.777000,-3.176000,29.634000,0.260000,30.46
0.061489,0.583000,-0.191000,-0.768000,-4.885000,33.649000,-2.275000,30.41
0.061944,0.596000,-0.203000,-0.755000,-7.405000,34.885000,-5.344000,30.51
0.062391,0.602000,-0.199000,-0.753000,-8.458000,34.916000,-7.481000,30.51
0.062832,0.597000,-0.206000,-0.759000,-9.954000,37.466000,-10.000000,30.55
0.063257,0.611000,-0.200000,-0.770000,-10.168000,36.718000,-12.855000,30.46
0.063700,0.627000,-0.186000,-0.774000,-8.748000,35.313000,-15.176000,30.51
0.064166,0.638000,-0.162000,-0.746000,-5.756000,33.863000,-17.542000,30.51
0.064634,0.647000,-0.158000,-0.749000,-0.901000,32.336000,-20.550000,30.46
0.065097,0.639000,-0.154000,-0.758000,4.107000,30.763000,-23.924000,30.46
0.065635,0.643000,-0.152000,-0.746000,8.656000,28.718000,-27.252000,30.46
0.066225,0.633000,-0.150000,-0.728000,14.672000,27.023000,-30.290000,30.51
0.066687,0.657000,-0.162000,-0.736000,17.786000,25.008000,-32.855000,30.51
0.067148,0.652000,-0.148000,-0.731000,20.855000,23.252000,-34.473000,30.55
0.067594,0.673000,-0.156000,-0.742000,23.511000,21.573000,-35.267000,30.55
0.068088,0.667000,-0.149000,-0.729000,25.053000,20.550000,-36.214000,30.46
0.068571,0.679000,-0.145000,-0.724000,26.244000,19.344000,-37.099000,30.41
0.069037,0.683000,-0.139000,-0.721000,27.740000,17.618000,-37.817000,30.41
0.069485,0.691000,-0.141000,-0.706000,29.863000,16.061000,-38.534000,30.55
0.069927,0.671000,-0.146000,-0.697000,31.405000,16.351000,-38.824000,30.46
0.070347,0.685000,-0.154000,-0.721000,32.061000,14.412000,-38.962000,30.41
0.070779,0.695000,-0.144000,-0.723000,31.252000,12.809000,-39.038000,30.51
0.071203,0.701000,-0.151000,-0.709000,29.756000,10.794000,-38.992000,30.51
0.071630,0.705000,-0.145000,-0.703000,29.374000,8.550000,-38.733000,30.55
0.072056,0.706000,-0.134000,-0.702000,29.328000,6.489000,-38.489000,30.46
0.072477,0.701000,-0.144000,-0.701000,28.611000,4.534000,-38.565000,30.51
0.072925,0.685000,-0.134000,-0.697000,29.099000,2.565000,-38.137000,30.60
0.073354,0.691000,-0.133000,-0.699000,29.710000,1.557000,-37.298000,30.46
0.073785,0.687000,-0.111000,-0.679000,30.275000,0.565000,-36.198000,30.46
0.074211,0.698000,-0.130000,-0.697000,29.664000,1.191000,-34.015000,30.46
0.074639,0.683000,-0.116000,-0.709000,28.382000,0.931000,-31.282000,30.41
0.075065,0.701000,-0.126000,-0.697000,26.656000,0.901000,-28.611000,30.51
0.075578,0.709000,-0.114000,-0.717000,24.916000,0.809000,-25.664000,30.37
0.076129,0.701000,-0.115000,-0.720000,23.481000,0.107000,-22.870000,30.37
0.076582,0.698000,-0.119000,-0.709000,22.198000,-0.260000,-20.260000,30.51
0.077032,0.697000,-0.115000,-0.695000,21.267000,-0.794000,-17.511000,30.41
0.077480,0.694000,-0.124000,-0.709000,19.969000,-0.550000,-14.840000,30.51
0.077991,0.688000,-0.112000,-0.704000,19.282000,0.473000,-11.511000,30.55
0.078491,0.700000,-0.111000,-0.709000,17.939000,1.038000,-8.153000,30.46
0.078987,0.704000,-0.113000,-0.705000,16.351000,2.595000,-5.069000,30.51
0.079440,0.708000,-0.125000,-0.714000,14.412000,2.061000,-2.275000,30.51
0.079863,0.700000,-0.146000,-0.708000,12.412000,2.992000,-0.641000,30.46
0.080282,0.703000,-0.139000,-0.710000,12.260000,2.550000,0.565000,30.46
0.080736,0.699000,-0.153000,-0.689000,12.565000,2.427000,1.115000,30.46
0.081161,0.691000,-0.153000,-0.696000,13.115000,2.641000,1.313000,30.41
0.081594,0.698000,-0.166000,-0.703000,13.145000,1.954000,1.389000,30.51
0.082020,0.696000,-0.167000,-0.702000,12.015000,2.015000,1.374000,30.46
0.082439,0.701000,-0.167000,-0.705000,10.565000,1.450000,1.282000,30.41
0.082870,0.698000,-0.184000,-0.712000,9.206000,0.885000,0.321000,30.51
0.083298,0.698000,-0.194000,-0.710000,7.573000,0.641000,-0.855000,30.51
0.083724,0.698000,-0.208000,-0.698000,6.412000,0.519000,-2.672000,30.51
0.084150,0.703000,-0.207000,-0.714000,6.183000,-0.092000,-5.298000,30.55
0.084578,0.696000,-0.212000,-0.713000,5.450000,-1.206000,-8.214000,30.60
0.084997,0.695000,-0.194000,-0.707000,5.221000,-3.176000,-11.710000,30.51
0.085586,0.696000,-0.167000,-0.701000,7.496000,-4.595000,-14.489000,30.51
0.086150,0.689000,-0.160000,-0.702000,11.542000,-6.183000,-17.893000,30.46
0.086601,0.683000,-0.170000,-0.705000,16.382000,-7.786000,-21.969000,30.55
0.087089,0.676000,-0.163000,-0.709000,22.427000,-8.458000,-26.550000,30.51
0.087554,0.685000,-0.184000,-0.719000,26.992000,-10.656000,-31.603000,30.41
0.088033,0.691000,-0.190000,-0.712000,31.924000,-11.206000,-37.237000,30.51
0.088487,0.687000,-0.184000,-0.726000,38.198000,-13.557000,-44.626000,30.46
0.088920,0.683000,-0.185000,-0.735000,45.206000,-15.756000,-53.084000,30.55
0.089362,0.677000,-0.197000,-0.734000,53.817000,-19.282000,-62.870000,30.60
0.089797,0.690000,-0.195000,-0.726000,63.771000,-23.786000,-74.580000,30.41
0.090229,0.724000,-0.205000,-0.712000,74.076000,-27.954000,-86.947000,30.41
0.090657,0.661000,-0.222000,-0.722000,85.053000,-34.015000,-99.588000,30.46
0.091085,0.677000,-0.206000,-0.706000,94.473000,-39.603000,-111.802000,30.46
0.091530,0.695000,-0.213000,-0.704000,102.687000,-45.099000,-123.130000,30.51
0.091966,0.699000,-0.221000,-0.689000,110.290000,-49.969000,-132.855000,30.51
0.092416,0.710000,-0.193000,-0.690000,116.855000,-53.405000,-142.672000,30.51
0.092869,0.711000,-0.172000,-0.700000,124.855000,-58.824000,-152.092000,30.46
0.093299,0.689000,-0.206000,-0.675000,130.870000,-63.450000,-160.305000,30.46
0.093733,0.689000,-0.202000,-0.688000,134.718000,-67.450000,-167.344000,30.41
0.094173,0.683000,-0.169000,-0.687000,139.053000,-69.863000,-172.641000,30.51
0.094612,0.673000,-0.154000,-0.704000,142.595000,-72.901000,-175.695000,30.41
0.095065,0.670000,-0.133000,-0.707000,144.412000,-73.756000,-175.527000,30.46
0.095606,0.667000,-0.101000,-0.742000,144.168000,-75.405000,-172.718000,30.46
0.096053,0.651000,-0.083000,-0.753000,140.931000,-76.840000,-167.832000,30.51
0.096490,0.634000,-0.098000,-0.767000,135.237000,-77.710000,-160.794000,30.51
0.096932,0.616000,-0.102000,-0.768000,125.267000,-77.435000,-150.947000,30.51
0.097375,0.594000,-0.094000,-0.790000,112.489000,-75.832000,-137.206000,30.46
0.097851,0.593000,-0.078000,-0.802000,96.840000,-72.412000,-120.580000,30.46
0.098301,0.562000,-0.089000,-0.815000,80.733000,-67.588000,-100.489000,30.51
0.098742,0.556000,-0.097000,-0.823000,62.092000,-63.252000,-77.328000,30.51
0.099175,0.551000,-0.076000,-0.831000,42.565000,-56.260000,-51.450000,30.55
0.099604,0.557000,-0.048000,-0.815000,24.656000,-45.008000,-22.702000,30.46
0.100024,0.554000,0.023000,-0.828000,12.290000,-37.053000,1.985000,30.37
0.100447,0.575000,0.111000,-0.860000,14.519000,-30.275000,15.496000,30.51
0.100881,0.546000,-0.049000,-0.840000,20.977000,-28.931000,19.939000,30.51
0.101304,0.511000,-0.153000,-0.827000,24.153000,-23.695000,18.137000,30.46
0.101744,0.559000,-0.175000,-0.816000,26.794000,-17.969000,17.374000,30.46
0.102182,0.563000,-0.132000,-0.813000,29.496000,-15.695000,18.366000,30.46
0.102609,0.551000,-0.235000,-0.810000,29.878000,-10.244000,19.679000,30.51
0.103049,0.547000,-0.297000,-0.791000,26.244000,-9.206000,18.244000,30.41
0.103487,0.537000,-0.335000,-0.797000,21.405000,-8.321000,14.962000,30.46
0.104020,0.401000,-0.381000,-0.746000,15.313000,-4.885000,8.153000,30.46
0.104455,0.533000,-0.328000,-0.802000,7.527000,-7.847000,3.481000,30.51
0.104922,0.549000,-0.239000,-0.832000,4.321000,-4.153000,1.099000,30.51
0.105416,0.543000,-0.192000,-0.815000,3.160000,-3.359000,1.389000,30.51
0.106010,0.557000,-0.176000,-0.816000,3.969000,-4.015000,2.504000,30.46
0.106476,0.556000,-0.153000,-0.839000,6.366000,-2.565000,4.229000,30.55
0.106906,0.549000,-0.192000,-0.812000,8.611000,-3.740000,5.802000,30.51
0.107363,0.534000,-0.204000,-0.827000,9.710000,-0.809000,7.176000,30.51
0.107822,0.537000,-0.202000,-0.833000,10.809000,1.344000,8.198000,30.55
0.108256,0.545000,-0.222000,-0.821000,11.618000,0.794000,9.130000,30.55
0.108675,0.540000,-0.200000,-0.825000,12.107000,1.771000,10.000000,30.46
0.109096,0.534000,-0.212000,-0.824000,13.649000,3.084000,11.252000,30.51
0.109520,0.532000,-0.228000,-0.829000,14.443000,3.771000,11.939000,30.51
0.109936,0.530000,-0.251000,-0.817000,14.504000,4.779000,11.878000,30.46
0.110341,0.521000,-0.279000,-0.823000,12.656000,4.718000,10.550000,30.37
0.110756,0.541000,-0.285000,-0.809000,10.534000,4.672000,9.023000,30.51
0.111160,0.542000,-0.275000,-0.805000,9.221000,3.695000,8.122000,30.51
0.111564,0.543000,-0.268000,-0.808000,8.031000,2.824000,7.115000,30.51
0.111965,0.551000,-0.264000,-0.823000,7.557000,2.336000,6.763000,30.46
0.112386,0.546000,-0.275000,-0.815000,6.809000,2.107000,6.122000,30.46
0.112803,0.546000,-0.262000,-0.820000,6.137000,1.756000,5.420000,30.51
0.113204,0.548000,-0.271000,-0.818000,5.695000,1.649000,5.160000,30.51
0.113608,0.546000,-0.273000,-0.809000,4.763000,1.832000,4.672000,30.51
0.114027,0.558000,-0.274000,-0.822000,3.420000,1.313000,4.260000,30.46
0.114432,0.546000,-0.273000,-0.825000,2.763000,-0.046000,3.847000,30.55
0.114835,0.553000,-0.283000,-0.812000,1.221000,-0.824000,3.221000,30.41
0.115241,0.543000,-0.262000,-0.812000,1.038000,-2.137000,2.702000,30.51
0.115784,0.525000,-0.273000,-0.802000,1.328000,-1.252000,2.473000,30.51
0.116353,0.527000,-0.259000,-0.813000,2.412000,-1.328000,2.733000,30.55
0.116794,0.522000,-0.250000,-0.808000,4.534000,-1.634000,2.992000,30.46
0.117233,0.515000,-0.254000,-0.811000,6.229000,-0.672000,3.679000,30.41
0.117735,0.530000,-0.235000,-0.819000,7.771000,-0.427000,4.611000,30.51
0.118177,0.541000,-0.223000,-0.827000,9.985000,-0.458000,6.076000,30.46
0.118587,0.549000,-0.229000,-0.827000,13.267000,-0.794000,7.908000,30.46
0.119014,0.552000,-0.240000,-0.830000,16.427000,-1.038000,9.756000,30.55
0.119439,0.550000,-0.243000,-0.830000,19.176000,-1.802000,11.237000,30.51
0.119884,0.553000,-0.241000,-0.835000,22.092000,-2.382000,12.885000,30.51
0.120323,0.550000,-0.250000,-0.831000,25.130000,-3.344000,14.840000,30.46
0.120760,0.551000,-0.263000,-0.829000,27.359000,-3.725000,16.015000,30.46
0.121194,0.565000,-0.273000,-0.851000,29.466000,-4.641000,17.282000,30.46
0.121642,0.511000,-0.287000,-0.819000,31.206000,-5.282000,17.496000,30.51
0.122063,0.477000,-0.360000,-0.770000,28.031000,-2.855000,15.405000,30.51
0.122499,0.466000,-0.377000,-0.764000,23.756000,-1.405000,12.275000,30.46
0.122937,0.451000,-0.368000,-0.764000,19.359000,-0.275000,9.252000,30.46
0.123380,0.487000,-0.368000,-0.768000,15.221000,0.473000,6.809000,30.46
0.123804,0.510000,-0.361000,-0.783000,12.977000,0.504000,5.237000,30.41
0.124247,0.515000,-0.351000,-0.800000,12.229000,-0.031000,4.473000,30.51
0.124669,0.529000,-0.335000,-0.820000,12.656000,-0.763000,4.534000,30.46
0.125089,0.542000,-0.319000,-0.844000,15.542000,-1.924000,5.786000,30.51
0.125646,0.529000,-0.298000,-0.833000,18.229000,-2.489000,6.809000,30.41
0.126219,0.524000,-0.318000,-0.832000,20.534000,-2.305000,8.504000,30.41
0.126675,0.523000,-0.312000,-0.848000,24.000000,-2.397000,10.412000,30.51
0.127116,0.514000,-0.319000,-0.839000,26.870000,-3.084000,12.321000,30.46
0.127551,0.525000,-0.366000,-0.829000,29.191000,-3.450000,13.939000,30.51
0.128089,0.528000,-0.373000,-0.824000,30.565000,-4.214000,15.023000,30.41
0.128555,0.539000,-0.386000,-0.820000,32.916000,-6.534000,16.748000,30.51
0.129087,0.518000,-0.388000,-0.801000,32.458000,-10.366000,16.779000,30.46
0.129536,0.486000,-0.420000,-0.764000,28.198000,-12.702000,14.992000,30.46
0.129961,0.489000,-0.462000,-0.754000,25.115000,-14.443000,13.832000,30.41
0.130436,0.491000,-0.421000,-0.745000,21.817000,-16.015000,12.229000,30.41
0.130890,0.493000,-0.411000,-0.771000,21.160000,-19.145000,11.405000,30.41
0.131322,0.460000,-0.398000,-0.747000,17.481000,-17.954000,9.802000,30.46
0.131753,0.454000,-0.414000,-0.718000,14.794000,-19.160000,8.489000,30.55
0.132174,0.453000,-0.402000,-0.755000,12.397000,-17.389000,7.634000,30.51
0.132594,0.450000,-0.380000,-0.776000,10.702000,-16.641000,7.069000,30.41
0.133018,0.466000,-0.388000,-0.798000,9.664000,-15.405000,6.855000,30.51
0.133438,0.451000,-0.369000,-0.779000,9.710000,-16.153000,7.038000,30.55
0.133854,0.435000,-0.362000,-0.782000,6.458000,-13.298000,6.443000,30.37
0.134276,0.420000,-0.362000,-0.772000,6.321000,-13.527000,5.298000,30.51
0.134690,0.414000,-0.386000,-0.769000,3.527000,-11.084000,3.557000,30.51
0.135110,0.418000,-0.411000,-0.761000,1.573000,-10.366000,1.908000,30.51
0.135639,0.426000,-0.429000,-0.755000,-0.916000,-7.099000,-0.031000,30.55
0.136201,0.431000,-0.456000,-0.772000,-4.687000,-6.321000,-0.595000,30.46
0.136679,0.435000,-0.436000,-0.783000,-6.031000,-7.115000,-1.405000,30.51
0.137138,0.444000,-0.400000,-0.790000,-6.000000,-9.191000,-2.061000,30.41
0.137574,0.447000,-0.402000,-0.788000,-6.580000,-8.229000,-2.794000,30.41
0.138004,0.448000,-0.376000,-0.818000,-6.397000,-8.153000,-2.947000,30.55
0.138414,0.452000,-0.361000,-0.822000,-4.641000,-9.679000,-2.901000,30.46
0.138830,0.446000,-0.335000,-0.830000,-4.489000,-7.588000,-3.603000,30.41
0.139251,0.460000,-0.329000,-0.854000,-2.290000,-10.153000,-3.802000,30.32
0.139667,0.436000,-0.299000,-0.846000,-0.611000,-11.725000,-5.359000,30.46
0.140079,0.407000,-0.286000,-0.843000,0.779000,-11.221000,-8.443000,30.46
0.140502,0.388000,-0.259000,-0.841000,2.015000,-12.580000,-13.237000,30.46
0.140920,0.370000,-0.252000,-0.857000,2.611000,-10.947000,-20.260000,30.41
0.141357,0.363000,-0.173000,-0.894000,4.840000,-11.771000,-32.397000,30.51
0.141787,0.359000,-0.013000,-0.958000,7.649000,-16.534000,-51.817000,30.46
0.142211,0.332000,0.125000,-0.995000,10.718000,-21.985000,-75.863000,30.46
0.142636,0.367000,0.156000,-0.999000,14.840000,-26.580000,-101.298000,30.46
0.143083,0.389000,0.212000,-0.901000,23.069000,-34.977000,-129.267000,30.51
0.143506,0.449000,0.182000,-0.933000,29.893000,-37.603000,-157.267000,30.51
0.143930,0.512000,0.194000,-0.865000,38.031000,-45.008000,-186.092000,30.37
0.144360,0.503000,0.256000,-0.841000,46.183000,-50.046000,-220.809000,30.46
0.144789,0.571000,0.217000,-0.835000,56.168000,-55.450000,-254.519000,30.46
0.145235,0.641000,0.137000,-0.904000,71.786000,-62.351000,-287.130000,30.51
0.145801,0.682000,0.074000,-0.958000,91.237000,-75.221000,-316.305000,30.51
0.146399,0.783000,-0.235000,-1.025000,117.954000,-87.847000,-333.725000,30.37
0.146867,0.939000,-0.441000,-1.153000,152.076000,-106.260000,-331.664000,30.46
0.147326,0.947000,-0.443000,-0.933000,173.573000,-121.679000,-315.893000,30.51
0.147837,0.863000,-0.501000,-0.750000,179.634000,-131.511000,-305.435000,30.41
0.148322,0.790000,-0.595000,-0.634000,165.573000,-140.351000,-296.092000,30.41
0.148819,0.728000,-0.716000,-0.510000,154.229000,-131.420000,-277.328000,30.46
0.149280,0.578000,-0.786000,-0.424000,141.679000,-119.863000,-259.160000,30.46
0.149721,0.446000,-0.746000,-0.366000,132.550000,-100.397000,-241.725000,30.51
0.150155,0.370000,-0.740000,-0.311000,124.855000,-74.977000,-223.084000,30.51
0.150589,0.300000,-0.712000,-0.343000,117.130000,-53.450000,-206.656000,30.46
0.151024,0.294000,-0.692000,-0.388000,107.710000,-28.885000,-190.809000,30.55
0.151457,0.313000,-0.631000,-0.471000,102.580000,-7.649000,-175.939000,30.46
0.151880,0.413000,-0.580000,-0.615000,84.489000,7.679000,-169.069000,30.41
0.152295,0.546000,-0.751000,-0.715000,25.817000,4.290000,-180.733000,30.41
0.152734,0.687000,-0.162000,-1.075000,11.115000,4.107000,-164.931000,30.46
0.153156,0.681000,-0.210000,-0.886000,37.221000,0.763000,-148.885000,30.46
0.153602,0.748000,-0.229000,-0.976000,47.679000,-0.809000,-138.137000,30.46
0.154045,0.690000,-0.204000,-1.192000,62.412000,-1.542000,-130.733000,30.51
0.154501,0.626000,-0.113000,-0.928000,74.931000,-23.588000,-121.878000,30.51
0.154930,0.669000,-0.099000,-0.896000,88.611000,-32.962000,-118.122000,30.46
0.155436,0.633000,-0.198000,-0.802000,93.099000,-37.802000,-116.550000,30.55
0.156013,0.616000,-0.256000,-0.724000,91.008000,-38.366000,-115.496000,30.46
0.156477,0.603000,-0.310000,-0.669000,83.985000,-37.481000,-114.489000,30.41
0.156938,0.603000,-0.356000,-0.631000,72.214000,-32.305000,-112.000000,30.41
0.157438,0.609000,-0.373000,-0.650000,64.458000,-33.969000,-108.305000,30.46
0.157983,0.599000,-0.367000,-0.644000,52.122000,-35.298000,-103.893000,30.46
0.158488,0.585000,-0.329000,-0.650000,38.748000,-34.550000,-99.924000,30.51
0.158964,0.609000,-0.304000,-0.670000,26.763000,-30.962000,-95.160000,30.41
0.159425,0.627000,-0.273000,-0.682000,16.947000,-31.160000,-89.618000,30.41
0.159882,0.674000,-0.207000,-0.720000,10.779000,-32.687000,-85.679000,30.46
0.160335,0.718000,-0.193000,-0.762000,7.740000,-35.557000,-76.534000,30.55
0.160777,0.723000,-0.262000,-0.738000,7.832000,-38.183000,-65.313000,30.51
0.161227,0.844000,-0.328000,-0.749000,8.076000,-37.115000,-49.176000,30.41
0.161722,0.688000,-0.396000,-0.720000,-2.336000,-44.290000,-29.847000,30.41
0.162236,0.539000,-0.307000,-0.778000,-8.885000,-31.496000,-3.344000,30.46
0.162694,0.292000,0.054000,-0.830000,-7.954000,-31.725000,4.183000,30.37
0.163142,0.397000,0.159000,-1.157000,-2.214000,-40.397000,-3.115000,30.51
0.163583,0.235000,-0.158000,-1.021000,-4.137000,-33.634000,-5.298000,30.41
0.164038,0.380000,-0.445000,-0.782000,-3.084000,-27.344000,-8.137000,30.60
0.164474,0.432000,-0.508000,-0.718000,-14.260000,6.061000,-10.107000,30.46
0.164926,0.542000,-0.183000,-0.915000,-13.405000,8.229000,-10.351000,30.46
0.165451,0.580000,0.018000,-1.003000,-4.031000,4.947000,-6.641000,30.41
0.166039,0.549000,-0.074000,-0.919000,3.466000,2.763000,-1.603000,30.41
0.166508,0.532000,-0.184000,-0.857000,5.160000,5.099000,1.786000,30.46
0.166942,0.516000,-0.231000,-0.829000,8.580000,-0.687000,2.061000,30.37
0.167360,0.481000,-0.290000,-0.818000,7.496000,0.702000,1.359000,30.46
0.167794,0.459000,-0.324000,-0.789000,2.855000,2.290000,0.076000,30.41
0.168224,0.478000,-0.285000,-0.777000,-1.710000,5.038000,-1.008000,30.41
0.168648,0.502000,-0.212000,-0.831000,-1.176000,2.931000,-2.229000,30.46
0.169077,0.510000,-0.236000,-0.834000,-0.855000,2.840000,-1.924000,30.46
0.169507,0.504000,-0.279000,-0.806000,-1.908000,3.557000,-1.695000,30.51
0.169950,0.498000,-0.268000,-0.831000,-1.435000,2.473000,-2.504000,30.41
0.170386,0.490000,-0.242000,-0.849000,-4.916000,8.763000,-2.641000,30.41
0.170815,0.488000,-0.210000,-0.841000,-4.076000,10.809000,-2.183000,30.46
0.171253,0.497000,-0.201000,-0.869000,-1.267000,6.534000,-0.565000,30.41
0.171671,0.485000,-0.186000,-0.907000,0.000000,6.626000,0.611000,30.51
0.172101,0.491000,-0.189000,-0.863000,3.725000,5.298000,1.527000,30.41
0.172545,0.503000,-0.191000,-0.854000,6.412000,5.802000,2.580000,30.41
0.172971,0.489000,-0.199000,-0.851000,8.198000,8.947000,3.267000,30.37
0.173402,0.512000,-0.224000,-0.844000,8.656000,6.275000,4.321000,30.41
0.173825,0.521000,-0.232000,-0.845000,6.962000,7.618000,4.977000,30.41
0.174268,0.526000,-0.255000,-0.825000,7.328000,5.374000,5.267000,30.41
0.174712,0.512000,-0.274000,-0.826000,6.382000,3.908000,4.870000,30.46
0.175137,0.458000,-0.269000,-0.804000,6.015000,4.702000,3.084000,30.37
0.175559,0.457000,-0.269000,-0.826000,4.092000,5.588000,1.282000,30.41
0.175976,0.501000,-0.267000,-0.811000,4.611000,4.870000,0.076000,30.41
0.176398,0.479000,-0.243000,-0.843000,-0.779000,9.725000,0.015000,30.41
0.176811,0.492000,-0.237000,-0.825000,1.450000,5.725000,-0.824000,30.55
0.177336,0.504000,-0.243000,-0.818000,0.290000,8.137000,-1.160000,30.37
0.177864,0.511000,-0.238000,-0.850000,1.618000,7.771000,-1.099000,30.41
0.178455,0.513000,-0.238000,-0.848000,1.725000,6.458000,-0.779000,30.41
0.179012,0.501000,-0.249000,-0.833000,1.023000,7.160000,-0.718000,30.32
0.179533,0.505000,-0.249000,-0.832000,1.206000,4.947000,-1.237000,30.46
0.179969,0.506000,-0.262000,-0.823000,0.382000,5.145000,-1.450000,30.46
0.180455,0.504000,-0.268000,-0.821000,-0.031000,4.412000,-2.397000,30.51
0.180888,0.508000,-0.257000,-0.826000,-1.634000,5.664000,-2.748000,30.41
0.181325,0.494000,-0.253000,-0.818000,-1.466000,5.481000,-2.870000,30.37
0.181756,0.503000,-0.246000,-0.833000,-1.542000,6.397000,-3.038000,30.37
0.182187,0.503000,-0.233000,-0.836000,-1.313000,6.031000,-2.504000,30.46
0.182614,0.507000,-0.225000,-0.842000,-0.397000,7.160000,-2.198000,30.41
0.183094,0.518000,-0.230000,-0.852000,0.748000,6.550000,-1.221000,30.32
0.183536,0.504000,-0.237000,-0.834000,1.344000,6.840000,-0.687000,30.46
0.183962,0.512000,-0.240000,-0.832000,1.588000,7.008000,-0.687000,30.46
0.184388,0.517000,-0.257000,-0.829000,1.389000,6.489000,-0.840000,30.46
0.184824,0.518000,-0.255000,-0.833000,1.099000,6.397000,-1.344000,30.51
0.185258,0.511000,-0.256000,-0.813000,0.458000,6.275000,-1.405000,30.41
0.185699,0.517000,-0.261000,-0.824000,-1.221000,7.969000,-2.427000,30.37
0.186146,0.516000,-0.269000,-0.825000,-2.290000,6.519000,-2.931000,30.37
0.186688,0.519000,-0.251000,-0.826000,-2.992000,6.412000,-3.282000,30.46
0.187168,0.513000,-0.252000,-0.821000,-2.519000,3.282000,-3.115000,30.32
0.187844,0.510000,-0.242000,-0.826000,-3.420000,5.191000,-3.344000,30.41
0.188401,0.520000,-0.230000,-0.826000,-2.229000,3.557000,-2.702000,30.46
0.188890,0.522000,-0.225000,-0.828000,-0.977000,4.046000,-2.015000,30.46
0.189471,0.510000,-0.236000,-0.825000,-0.702000,4.733000,-1.679000,30.46
0.189967,0.511000,-0.245000,-0.822000,0.015000,5.008000,-1.511000,30.41
0.190457,0.516000,-0.256000,-0.821000,0.656000,4.168000,-1.573000,30.41
0.190906,0.511000,-0.230000,-0.820000,0.885000,3.832000,-1.573000,30.55
0.191331,0.510000,-0.259000,-0.819000,0.290000,6.901000,-2.031000,30.46
0.191758,0.470000,-0.246000,-0.794000,0.122000,5.924000,-2.046000,30.46
0.192169,0.511000,-0.242000,-0.809000,2.550000,2.244000,-2.397000,30.51
0.192593,0.501000,-0.242000,-0.829000,0.489000,6.305000,-2.290000,30.41
0.193031,0.529000,-0.248000,-0.834000,-0.031000,3.878000,-2.061000,30.55
0.193453,0.519000,-0.236000,-0.829000,-0.412000,3.221000,-1.679000,30.37
0.193869,0.514000,-0.238000,-0.823000,-0.412000,3.374000,-1.740000,30.51
0.194287,0.524000,-0.244000,-0.793000,-0.718000,3.099000,-1.328000,30.41
0.194740,0.521000,-0.246000,-0.832000,-0.611000,2.458000,-0.992000,30.51
0.195187,0.525000,-0.243000,-0.824000,-0.092000,3.160000,-1.160000,30.46
0.195619,0.521000,-0.256000,-0.821000,-0.550000,3.237000,-0.885000,30.46
0.196046,0.508000,-0.254000,-0.828000,-0.061000,3.420000,-1.038000,30.51
0.196491,0.508000,-0.270000,-0.818000,-1.206000,3.557000,-1.679000,30.41
0.196912,0.520000,-0.261000,-0.819000,-2.275000,3.969000,-2.580000,30.51
0.197347,0.525000,-0.261000,-0.824000,-2.779000,4.107000,-2.794000,30.46
0.197789,0.515000,-0.249000,-0.827000,-2.947000,4.153000,-2.702000,30.46
0.198230,0.514000,-0.243000,-0.820000,-2.534000,3.969000,-2.519000,30.41
0.198653,0.517000,-0.245000,-0.823000,-2.229000,4.504000,-2.290000,30.41
0.199069,0.519000,-0.242000,-0.830000,-2.015000,4.626000,-2.031000,30.32
0.199494,0.518000,-0.245000,-0.829000,-1.786000,4.947000,-1.618000,30.46
0.199921,0.519000,-0.254000,-0.827000,-1.618000,5.695000,-1.618000,30.46
0.200361,0.516000,-0.270000,-0.823000,-2.397000,6.122000,-2.168000,30.51
0.200779,0.529000,-0.282000,-0.813000,-4.183000,5.588000,-3.405000,30.41
0.201196,0.524000,-0.290000,-0.821000,-5.725000,5.160000,-4.321000,30.46
0.201628,0.533000,-0.292000,-0.808000,-8.198000,4.198000,-5.756000,30.37
0.202049,0.528000,-0.294000,-0.815000,-11.221000,2.992000,-7.115000,30.46
0.202465,0.530000,-0.276000,-0.808000,-13.725000,1.573000,-8.763000,30.41
0.202903,0.530000,-0.261000,-0.810000,-15.237000,0.092000,-9.588000,30.51
0.203328,0.531000,-0.231000,-0.821000,-15.573000,-1.221000,-9.542000,30.37
0.203774,0.532000,-0.204000,-0.835000,-14.351000,-2.107000,-8.290000,30.46
0.204298,0.530000,-0.199000,-0.843000,-12.504000,-2.275000,-7.099000,30.41
0.204787,0.530000,-0.197000,-0.843000,-10.382000,-1.893000,-5.267000,30.41
0.205230,0.529000,-0.211000,-0.830000,-8.336000,-0.947000,-3.511000,30.51
0.205708,0.519000,-0.206000,-0.843000,-6.397000,-0.427000,-2.366000,30.46
0.206133,0.522000,-0.213000,-0.838000,-5.099000,1.252000,-1.405000,30.46
0.206541,0.555000,-0.218000,-0.875000,-3.084000,-0.977000,-0.489000,30.41
0.206950,0.516000,-0.209000,-0.835000,-1.496000,2.427000,0.382000,30.51
0.207364,0.518000,-0.227000,-0.829000,-1.130000,2.000000,0.916000,30.41
0.207791,0.534000,-0.234000,-0.830000,-0.931000,2.122000,1.160000,30.46
0.208199,0.494000,-0.216000,-0.795000,-1.344000,1.389000,1.969000,30.46
0.208619,0.535000,-0.226000,-0.832000,1.023000,0.214000,1.618000,30.41
0.209033,0.524000,-0.227000,-0.833000,3.603000,3.969000,1.679000,30.41
0.209441,0.543000,-0.233000,-0.841000,4.565000,5.542000,2.076000,30.46
0.209844,0.538000,-0.229000,-0.851000,8.336000,3.221000,2.412000,30.46
0.210254,0.521000,-0.219000,-0.831000,3.832000,5.847000,3.405000,30.37
0.210674,0.521000,-0.219000,-0.847000,9.939000,-1.130000,4.305000,30.41
0.211089,0.529000,-0.220000,-0.862000,10.962000,-0.779000,5.053000,30.41
0.211512,0.509000,-0.218000,-0.852000,12.504000,-0.489000,5.420000,30.37
0.211936,0.507000,-0.228000,-0.842000,14.153000,0.885000,5.145000,30.46
0.212364,0.514000,-0.240000,-0.845000,12.275000,5.282000,5.053000,30.46
0.212793,0.524000,-0.234000,-0.839000,19.496000,-2.427000,5.313000,30.41
0.213216,0.510000,-0.243000,-0.812000,14.718000,5.725000,5.863000,30.32
0.213640,0.515000,-0.239000,-0.834000,20.015000,-0.305000,6.031000,30.46
0.214164,0.521000,-0.263000,-0.848000,18.947000,2.824000,6.336000,30.46
0.214749,0.506000,-0.253000,-0.809000,18.702000,3.527000,6.824000,30.51
0.215195,0.509000,-0.257000,-0.823000,19.069000,2.000000,6.595000,30.41
0.215637,0.526000,-0.249000,-0.818000,17.282000,3.786000,6.427000,30.32
0.216061,0.505000,-0.226000,-0.829000,16.718000,1.603000,5.389000,30.37
0.216484,0.509000,-0.233000,-0.832000,16.840000,-0.656000,4.550000,30.41
0.216905,0.489000,-0.225000,-0.810000,15.573000,1.542000,2.473000,30.41
0.217333,0.498000,-0.234000,-0.833000,16.046000,-0.748000,0.779000,30.41
0.217811,0.500000,-0.248000,-0.824000,15.008000,-1.405000,-2.046000,30.41
0.218282,0.505000,-0.216000,-0.822000,14.427000,-5.389000,-5.954000,30.46
0.218739,0.524000,-0.179000,-0.835000,14.870000,-4.519000,-12.397000,30.51
0.219189,0.528000,-0.111000,-0.863000,17.832000,-8.611000,-22.489000,30.41
0.219643,0.521000,0.006000,-0.892000,24.809000,-16.397000,-39.954000,30.41
0.220113,0.521000,0.172000,-0.899000,31.008000,-23.252000,-65.069000,30.46
0.220612,0.553000,0.290000,-0.983000,39.542000,-35.191000,-96.122000,30.46
0.221061,0.651000,0.446000,-0.935000,50.580000,-51.847000,-134.321000,30.41
0.221484,0.708000,0.514000,-0.979000,63.450000,-63.389000,-173.939000,30.41
0.221910,0.823000,0.535000,-0.914000,76.550000,-73.954000,-210.504000,30.41
0.222336,0.848000,0.458000,-0.856000,81.573000,-86.885000,-243.145000,30.37
0.222773,0.967000,0.046000,-0.774000,78.733000,-97.450000,-256.046000,30.37
0.223216,0.917000,-0.219000,-0.670000,79.282000,-91.450000,-255.298000,30.41
0.223644,0.767000,-0.330000,-0.599000,73.924000,-84.534000,-247.817000,30.41
0.224147,0.691000,-0.298000,-0.662000,71.573000,-78.962000,-240.107000,30.51
0.224764,0.599000,-0.308000,-0.669000,66.840000,-69.847000,-229.313000,30.46
0.225230,0.529000,-0.303000,-0.668000,62.458000,-61.298000,-220.473000,30.46
0.225677,0.518000,-0.234000,-0.677000,61.832000,-50.244000,-216.275000,30.51
0.226120,0.525000,-0.224000,-0.665000,63.603000,-42.580000,-213.435000,30.41
0.226574,0.572000,-0.191000,-0.692000,66.992000,-35.389000,-213.084000,30.51
0.227023,0.625000,-0.086000,-0.752000,75.832000,-29.695000,-216.290000,30.46
0.227470,0.706000,-0.098000,-0.765000,88.122000,-29.710000,-219.252000,30.37
0.227969,0.817000,-0.299000,-0.859000,94.351000,-28.565000,-215.405000,30.32
0.228445,0.885000,-0.245000,-0.877000,90.641000,-33.863000,-213.878000,30.41
0.228893,0.835000,-0.315000,-0.807000,90.214000,-37.771000,-207.160000,30.46
0.229332,0.805000,-0.323000,-0.774000,87.191000,-44.351000,-200.779000,30.37
0.229756,0.741000,-0.313000,-0.727000,80.748000,-45.237000,-195.878000,30.37
0.230220,0.670000,-0.290000,-0.689000,76.229000,-43.954000,-192.000000,30.51
0.230649,0.605000,-0.283000,-0.658000,73.267000,-39.237000,-188.092000,30.51
0.231076,0.567000,-0.278000,-0.657000,69.466000,-32.901000,-185.099000,30.46
0.231510,0.536000,-0.274000,-0.658000,67.954000,-25.115000,-181.038000,30.46
0.231942,0.531000,-0.281000,-0.657000,68.153000,-16.947000,-175.893000,30.41
0.232361,0.504000,-0.289000,-0.628000,70.260000,-8.321000,-168.595000,30.41
0.232788,0.482000,-0.289000,-0.608000,74.565000,1.221000,-159.679000,30.32
0.233215,0.478000,-0.291000,-0.609000,81.954000,12.885000,-149.313000,30.37
0.233641,0.673000,-0.250000,-0.774000,113.878000,19.206000,-121.725000,30.37
0.234168,0.487000,-0.513000,-0.621000,142.473000,32.290000,-101.374000,30.41
0.234761,0.547000,-0.644000,-0.862000,154.672000,23.832000,-87.481000,30.41
0.235210,0.581000,-0.809000,-1.106000,139.084000,3.191000,-80.656000,30.41
0.235655,0.546000,-0.907000,-1.120000,94.336000,-26.015000,-75.710000,30.37
0.236101,0.375000,-0.918000,-0.788000,55.374000,-18.519000,-65.160000,30.46
0.236568,0.271000,-0.553000,-0.590000,36.427000,-20.031000,-51.023000,30.41
0.237002,0.382000,-0.421000,-0.776000,16.779000,-7.176000,-36.733000,30.32
0.237452,0.620000,-0.273000,-0.963000,-2.718000,-8.580000,-21.542000,30.37
0.237895,0.492000,0.042000,-0.916000,-12.397000,-3.481000,-8.611000,30.46
0.238313,0.531000,0.239000,-0.888000,4.260000,-7.710000,-2.550000,30.46
0.238722,0.630000,0.057000,-0.969000,14.061000,-16.855000,4.718000,30.32
0.239145,0.507000,-0.234000,-0.811000,17.634000,-20.641000,8.473000,30.41
0.239568,0.478000,-0.241000,-0.877000,11.069000,-7.008000,7.832000,30.46
0.239985,0.470000,-0.153000,-0.880000,8.733000,-3.130000,3.802000,30.37
0.240387,0.490000,-0.203000,-0.853000,7.099000,7.817000,1.664000,30.37
0.240794,0.525000,-0.241000,-0.830000,9.786000,8.076000,1.878000,30.41
0.241204,0.547000,-0.225000,-0.874000,9.420000,8.305000,2.397000,30.41
0.241621,0.525000,-0.240000,-0.861000,8.504000,9.969000,2.076000,30.46
0.242028,0.514000,-0.256000,-0.845000,5.695000,9.053000,0.779000,30.46
0.242436,0.512000,-0.251000,-0.845000,1.985000,8.733000,-0.870000,30.46
0.242877,0.529000,-0.235000,-0.833000,-2.382000,8.137000,-2.519000,30.41
0.243296,0.511000,-0.224000,-0.825000,-5.725000,6.015000,-4.061000,30.41
0.243719,0.505000,-0.209000,-0.830000,-9.954000,5.069000,-5.863000,30.46
0.244257,0.503000,-0.222000,-0.833000,-13.802000,3.252000,-8.061000,30.46
0.244818,0.514000,-0.221000,-0.829000,-16.061000,3.328000,-9.695000,30.41
0.245313,0.524000,-0.207000,-0.842000,-16.031000,1.771000,-10.214000,30.41
0.245754,0.523000,-0.182000,-0.850000,-15.160000,1.893000,-10.061000,30.41
0.246170,0.523000,-0.157000,-0.855000,-13.756000,1.084000,-8.702000,30.37
0.246586,0.514000,-0.158000,-0.851000,-11.740000,0.855000,-7.221000,30.55
0.247008,0.503000,-0.147000,-0.845000,-10.153000,0.992000,-5.985000,30.41
0.247414,0.495000,-0.157000,-0.854000,-9.374000,1.649000,-5.634000,30.41
0.247839,0.493000,-0.161000,-0.842000,-9.344000,3.084000,-5.954000,30.41
0.248252,0.494000,-0.156000,-0.854000,-9.359000,4.107000,-6.153000,30.37
0.248663,0.506000,-0.159000,-0.847000,-8.916000,5.145000,-5.985000,30.46
0.249083,0.509000,-0.169000,-0.854000,-8.382000,4.656000,-5.313000,30.41
0.249501,0.517000,-0.160000,-0.847000,-7.817000,4.519000,-5.115000,30.51
0.249922,0.521000,-0.162000,-0.861000,-7.847000,4.382000,-5.084000,30.37
0.250343,0.520000,-0.166000,-0.846000,-7.969000,3.679000,-4.656000,30.37
0.250757,0.521000,-0.165000,-0.849000,-7.817000,3.038000,-4.458000,30.46
0.251175,0.527000,-0.158000,-0.849000,-7.481000,2.626000,-4.473000,30.41
0.251589,0.526000,-0.165000,-0.855000,-7.023000,2.275000,-4.031000,30.51
0.251999,0.515000,-0.167000,-0.852000,-6.656000,1.802000,-4.183000,30.37
0.252416,0.515000,-0.166000,-0.849000,-6.565000,1.908000,-4.351000,30.37
0.252848,0.511000,-0.155000,-0.841000,-6.275000,1.893000,-4.397000,30.37
0.253261,0.513000,-0.149000,-0.853000,-6.061000,1.725000,-4.092000,30.51
0.253676,0.505000,-0.151000,-0.848000,-5.466000,1.756000,-4.198000,30.41
0.254231,0.502000,-0.161000,-0.849000,-5.969000,2.611000,-4.534000,30.46
0.254838,0.502000,-0.148000,-0.856000,-5.740000,3.115000,-5.145000,30.41
0.255292,0.510000,-0.132000,-0.850000,-5.130000,3.023000,-4.824000,30.51
0.255739,0.507000,-0.120000,-0.845000,-4.122000,3.145000,-4.290000,30.41
0.256174,0.514000,-0.120000,-0.843000,-2.595000,3.954000,-3.313000,30.41
0.256621,0.514000,-0.129000,-0.846000,-0.672000,4.046000,-2.702000,30.37
0.257063,0.550000,-0.132000,-0.818000,2.168000,-0.672000,-2.305000,30.32
0.257491,0.545000,-0.134000,-0.816000,1.053000,2.412000,-1.282000,30.41
0.257968,0.515000,-0.146000,-0.856000,0.046000,3.221000,-1.191000,30.41
0.258428,0.516000,-0.136000,-0.844000,1.863000,0.519000,-0.916000,30.41
0.258868,0.510000,-0.146000,-0.844000,-0.382000,1.649000,-0.702000,30.37
0.259300,0.510000,-0.142000,-0.845000,-1.817000,2.840000,-0.595000,30.41
0.259735,0.502000,-0.130000,-0.846000,-0.321000,2.046000,-0.473000,30.41
0.260162,0.495000,-0.136000,-0.852000,1.618000,1.435000,-0.595000,30.41
0.260598,0.500000,-0.142000,-0.845000,2.336000,1.573000,-0.427000,30.37
0.261025,0.496000,-0.144000,-0.838000,1.603000,4.321000,-0.443000,30.37
0.261453,0.494000,-0.131000,-0.846000,2.931000,4.046000,-0.672000,30.32
0.261914,0.505000,-0.113000,-0.843000,3.847000,3.710000,0.351000,30.32
0.262360,0.501000,-0.136000,-0.856000,5.176000,4.290000,0.870000,30.41
0.262781,0.518000,-0.161000,-0.857000,5.649000,4.611000,1.023000,30.46
0.263182,0.527000,-0.180000,-0.837000,3.725000,5.450000,0.870000,30.37
0.263603,0.518000,-0.175000,-0.849000,1.359000,6.031000,0.489000,30.41
0.264096,0.519000,-0.178000,-0.847000,1.237000,4.733000,-0.092000,30.41
0.264640,0.510000,-0.184000,-0.843000,1.069000,3.756000,-1.145000,30.41
0.265093,0.504000,-0.167000,-0.834000,0.595000,3.344000,-1.756000,30.46
0.265581,0.509000,-0.155000,-0.852000,0.840000,3.374000,-1.771000,30.46
0.266029,0.513000,-0.153000,-0.847000,1.817000,2.931000,-1.511000,30.41
0.266470,0.513000,-0.157000,-0.854000,2.336000,3.389000,-1.145000,30.41
0.266898,0.522000,-0.167000,-0.846000,2.397000,3.695000,-0.931000,30.41
0.267325,0.525000,-0.165000,-0.860000,1.771000,3.786000,-0.916000,30.46
0.267804,0.525000,-0.173000,-0.853000,1.466000,3.252000,-0.840000,30.37
0.268236,0.531000,-0.177000,-0.848000,0.962000,3.450000,-0.687000,30.41
0.268653,0.529000,-0.182000,-0.843000,-0.183000,3.267000,-0.840000,30.41
0.269076,0.532000,-0.196000,-0.850000,-1.664000,2.885000,-1.573000,30.46
0.269495,0.523000,-0.185000,-0.836000,-3.557000,2.183000,-2.504000,30.46
0.269912,0.520000,-0.177000,-0.845000,-5.145000,1.313000,-3.298000,30.37
0.270323,0.526000,-0.176000,-0.845000,-5.863000,0.504000,-3.771000,30.41
0.270751,0.522000,-0.165000,-0.845000,-5.939000,-0.168000,-3.954000,30.51
0.271169,0.526000,-0.159000,-0.851000,-5.496000,-1.466000,-3.679000,30.46
0.271589,0.524000,-0.143000,-0.847000,-5.359000,-1.802000,-2.947000,30.46
0.272121,0.528000,-0.140000,-0.852000,-4.137000,-2.382000,-2.229000,30.41
0.272727,0.522000,-0.140000,-0.849000,-3.878000,-2.168000,-1.038000,30.41
0.273175,0.525000,-0.133000,-0.852000,-2.809000,-2.580000,-0.015000,30.41
0.273591,0.522000,-0.131000,-0.851000,-2.061000,-2.015000,1.237000,30.46
0.274019,0.516000,-0.128000,-0.852000,2.290000,-3.176000,2.656000,30.46
0.274447,0.510000,-0.134000,-0.847000,4.595000,-2.061000,4.321000,30.41
0.274856,0.501000,-0.146000,-0.857000,7.023000,-0.870000,5.557000,30.41
0.275266,0.492000,-0.174000,-0.862000,8.412000,1.023000,5.832000,30.37
0.275673,0.500000,-0.169000,-0.857000,7.557000,4.351000,5.634000,30.37
0.276082,0.498000,-0.167000,-0.854000,8.412000,3.557000,5.267000,30.37
0.276498,0.516000,-0.172000,-0.858000,8.672000,4.305000,5.069000,30.41
0.276902,0.506000,-0.155000,-0.860000,9.160000,5.145000,5.878000,30.32
0.277304,0.553000,-0.122000,-0.906000,8.504000,7.802000,7.511000,30.37
0.277726,0.531000,-0.154000,-0.877000,9.115000,2.046000,7.771000,30.37
0.278139,0.537000,-0.193000,-0.882000,12.595000,3.008000,8.122000,30.41
0.278567,0.505000,-0.228000,-0.831000,6.901000,7.557000,7.496000,30.41
0.278991,0.502000,-0.209000,-0.850000,4.229000,6.840000,6.260000,30.41
0.279452,0.526000,-0.191000,-0.847000,0.718000,6.901000,6.595000,30.37
0.279880,0.511000,-0.198000,-0.855000,-0.107000,5.847000,6.748000,30.46
0.280290,0.510000,-0.203000,-0.838000,1.710000,5.344000,5.802000,30.41
0.280701,0.547000,-0.182000,-0.879000,9.008000,-10.718000,5.664000,30.51
0.281123,0.508000,-0.185000,-0.822000,-1.008000,3.618000,5.618000,30.37
0.281533,0.483000,-0.152000,-0.872000,2.611000,-9.008000,5.328000,30.37
0.281946,0.482000,-0.176000,-0.796000,-3.084000,4.626000,4.473000,30.46
0.282470,0.510000,-0.161000,-0.855000,1.588000,-0.748000,4.244000,30.41
0.282916,0.494000,-0.171000,-0.833000,0.824000,1.603000,4.366000,30.32
0.283348,0.495000,-0.179000,-0.840000,2.794000,-1.313000,4.443000,30.37
0.283780,0.492000,-0.198000,-0.846000,1.191000,1.527000,4.244000,30.32
0.284196,0.496000,-0.195000,-0.846000,1.466000,1.649000,3.740000,30.41
0.284615,0.494000,-0.178000,-0.837000,1.252000,0.840000,3.664000,30.32
0.285040,0.487000,-0.175000,-0.840000,0.687000,0.305000,4.076000,30.37
0.285454,0.484000,-0.186000,-0.838000,1.924000,2.534000,4.046000,30.27
0.285858,0.487000,-0.189000,-0.859000,2.809000,2.947000,3.466000,30.41
0.286276,0.489000,-0.177000,-0.863000,5.084000,3.527000,3.511000,30.32
0.286692,0.490000,-0.201000,-0.843000,5.038000,3.771000,3.603000,30.32
0.287115,0.479000,-0.213000,-0.820000,5.099000,4.763000,3.053000,30.37
0.287538,0.491000,-0.211000,-0.859000,4.931000,3.924000,2.153000,30.46
0.287965,0.484000,-0.205000,-0.826000,2.870000,5.038000,1.344000,30.41
0.288376,0.500000,-0.228000,-0.833000,-0.031000,6.733000,0.244000,30.41
0.288793,0.492000,-0.216000,-0.831000,-2.397000,7.313000,-0.412000,30.41
0.289208,0.498000,-0.205000,-0.831000,-3.557000,7.313000,-0.763000,30.37
0.289621,0.500000,-0.218000,-0.837000,-1.832000,5.817000,-1.374000,30.46
0.290035,0.499000,-0.206000,-0.833000,-0.382000,3.878000,-1.802000,30.41
0.290451,0.490000,-0.204000,-0.843000,-1.863000,6.565000,-1.786000,30.32
0.290868,0.493000,-0.196000,-0.833000,-3.496000,6.718000,-1.725000,30.41
0.291298,0.498000,-0.202000,-0.836000,-1.221000,3.893000,-2.351000,30.37
0.291711,0.505000,-0.198000,-0.831000,-1.328000,4.809000,-2.275000,30.37
0.292250,0.499000,-0.196000,-0.838000,-2.824000,5.863000,-2.107000,30.32
0.292915,0.513000,-0.188000,-0.846000,-4.305000,7.282000,-1.649000,30.41
0.293355,0.510000,-0.191000,-0.851000,-5.176000,7.908000,-1.588000,30.37
0.293773,0.499000,-0.202000,-0.840000,-3.893000,7.176000,-1.618000,30.37
0.294204,0.526000,-0.208000,-0.844000,-3.740000,1.893000,-1.496000,30.46
0.294628,0.505000,-0.208000,-0.833000,-0.763000,3.191000,-2.244000,30.41
0.295072,0.508000,-0.210000,-0.834000,-4.840000,7.740000,-2.641000,30.41
0.295512,0.512000,-0.204000,-0.833000,-3.802000,5.786000,-2.718000,30.46
0.295942,0.508000,-0.205000,-0.833000,-3.756000,5.359000,-3.099000,30.37
0.296353,0.514000,-0.209000,-0.835000,-3.252000,5.435000,-3.344000,30.41
0.296772,0.518000,-0.195000,-0.839000,-4.809000,6.962000,-3.191000,30.41
0.297185,0.522000,-0.189000,-0.839000,-3.527000,6.321000,-3.069000,30.41
0.297604,0.523000,-0.194000,-0.840000,-2.977000,5.908000,-2.962000,30.46
0.298036,0.518000,-0.192000,-0.833000,-1.817000,5.481000,-2.977000,30.46
0.298463,0.515000,-0.201000,-0.838000,-2.427000,6.809000,-2.656000,30.41
0.298877,0.507000,-0.199000,-0.835000,-3.115000,7.466000,-3.145000,30.41
0.299318,0.524000,-0.190000,-0.837000,-4.031000,8.718000,-3.099000,30.37
0.299735,0.525000,-0.197000,-0.843000,-4.107000,7.069000,-3.145000,30.37
0.300152,0.515000,-0.196000,-0.837000,-3.160000,6.214000,-3.176000,30.46
0.300572,0.514000,-0.187000,-0.842000,-3.481000,5.695000,-3.359000,30.41
0.300993,0.514000,-0.207000,-0.819000,-4.580000,6.076000,-3.450000,30.32
0.301413,0.519000,-0.186000,-0.832000,-4.626000,6.046000,-3.908000,30.46
0.301830,0.527000,-0.201000,-0.818000,-5.496000,6.412000,-3.466000,30.37
0.302355,0.529000,-0.176000,-0.844000,-4.916000,4.947000,-3.176000,30.41
0.303012,0.526000,-0.192000,-0.840000,-4.809000,4.748000,-3.115000,30.41
0.303529,0.525000,-0.187000,-0.839000,-4.931000,4.153000,-2.870000,30.41
0.304058,0.517000,-0.180000,-0.838000,-4.733000,4.473000,-2.458000,30.46
0.304551,0.519000,-0.185000,-0.835000,-4.260000,4.290000,-2.214000,30.46
0.304961,0.527000,-0.182000,-0.844000,-3.802000,4.244000,-1.908000,30.41
0.305373,0.538000,-0.177000,-0.835000,-2.931000,3.695000,-1.145000,30.41
0.305785,0.527000,-0.169000,-0.835000,-2.275000,3.115000,-0.763000,30.37
0.306198,0.521000,-0.173000,-0.838000,-2.473000,2.824000,-0.290000,30.37
0.306603,0.523000,-0.177000,-0.847000,-2.000000,2.550000,0.168000,30.37
0.307011,0.522000,-0.184000,-0.839000,-2.031000,2.595000,0.061000,30.41
0.307422,0.513000,-0.189000,-0.832000,-2.031000,3.023000,-0.122000,30.41
0.307858,0.519000,-0.194000,-0.834000,-2.183000,3.466000,-0.351000,30.46
0.308271,0.520000,-0.204000,-0.840000,-2.153000,3.771000,-0.870000,30.46
0.308680,0.521000,-0.199000,-0.835000,-2.840000,4.046000,-1.435000,30.32
0.309097,0.525000,-0.194000,-0.824000,-3.115000,3.328000,-1.557000,30.41
0.309515,0.512000,-0.191000,-0.832000,-3.023000,4.290000,-1.939000,30.32
0.309922,0.515000,-0.196000,-0.830000,-4.275000,5.206000,-2.473000,30.37
0.310327,0.526000,-0.198000,-0.840000,-4.260000,4.534000,-2.824000,30.41
0.310740,0.527000,-0.192000,-0.828000,-5.832000,5.573000,-3.679000,30.41
0.311154,0.519000,-0.173000,-0.858000,-2.962000,4.076000,-4.763000,30.51
0.311567,0.517000,-0.203000,-0.817000,-5.725000,5.695000,-4.168000,30.37
0.311971,0.539000,-0.175000,-0.841000,-5.145000,5.252000,-3.740000,30.46
0.312503,0.526000,-0.174000,-0.840000,-4.748000,4.534000,-3.710000,30.51
0.313195,0.524000,-0.197000,-0.840000,-2.916000,4.031000,-3.542000,30.32
0.313654,0.529000,-0.182000,-0.832000,-3.649000,4.641000,-3.649000,30.32
0.314088,0.534000,-0.172000,-0.836000,-2.672000,3.328000,-3.267000,30.37
0.314524,0.530000,-0.177000,-0.839000,-3.252000,4.198000,-2.916000,30.37
0.314956,0.512000,-0.154000,-0.853000,-2.565000,3.954000,-3.695000,30.32
0.315387,0.511000,-0.172000,-0.836000,-3.863000,3.374000,-3.389000,30.32
0.315852,0.525000,-0.169000,-0.830000,-3.221000,4.015000,-3.405000,30.41
0.316319,0.528000,-0.176000,-0.842000,-2.412000,2.336000,-3.145000,30.46
0.316769,0.529000,-0.170000,-0.838000,-3.771000,3.527000,-3.023000,30.37
0.317200,0.527000,-0.188000,-0.833000,-2.901000,2.412000,-2.779000,30.41
0.317627,0.528000,-0.173000,-0.833000,-3.344000,2.626000,-2.275000,30.41
0.318086,0.517000,-0.174000,-0.839000,-4.305000,3.221000,-2.061000,30.32
0.318514,0.525000,-0.183000,-0.839000,-4.779000,3.847000,-1.985000,30.37
0.318921,0.526000,-0.174000,-0.828000,-4.824000,3.649000,-1.771000,30.46
0.319336,0.527000,-0.173000,-0.841000,-4.931000,3.573000,-1.924000,30.32
0.319737,0.530000,-0.174000,-0.833000,-3.939000,2.916000,-2.107000,30.51
0.320142,0.524000,-0.172000,-0.831000,-3.924000,3.145000,-1.740000,30.37
0.320634,0.522000,-0.164000,-0.841000,-3.450000,3.679000,-1.756000,30.46
0.321044,0.519000,-0.171000,-0.831000,-3.237000,3.740000,-1.969000,30.46
0.321447,0.516000,-0.166000,-0.838000,-2.458000,3.939000,-1.969000,30.32
0.321858,0.510000,-0.164000,-0.842000,-2.443000,3.863000,-2.824000,30.41
0.322334,0.533000,-0.186000,-0.840000,-0.351000,-0.672000,-3.130000,30.37
0.322952,0.523000,-0.189000,-0.812000,-1.740000,2.840000,-3.389000,30.37
0.323371,0.533000,-0.157000,-0.850000,-2.260000,2.824000,-3.130000,30.46
0.323784,0.517000,-0.171000,-0.833000,-2.779000,4.290000,-2.580000,30.32
0.324201,0.520000,-0.176000,-0.844000,-2.550000,3.603000,-2.595000,30.32
0.324611,0.526000,-0.169000,-0.833000,-2.443000,2.443000,-2.137000,30.37
0.325021,0.534000,-0.174000,-0.834000,-1.954000,3.099000,-2.046000,30.37
0.325428,0.528000,-0.176000,-0.832000,-1.969000,3.435000,-1.908000,30.32
0.325840,0.530000,-0.163000,-0.836000,-1.634000,3.634000,-1.725000,30.41
0.326256,0.527000,-0.168000,-0.834000,-1.939000,3.511000,-1.573000,30.51
0.326664,0.529000,-0.169000,-0.833000,-1.603000,3.252000,-1.603000,30.27
0.327085,0.531000,-0.175000,-0.825000,-2.290000,3.908000,-1.588000,30.46
0.327496,0.532000,-0.161000,-0.840000,-2.015000,3.557000,-1.267000,30.41
0.327911,0.524000,-0.166000,-0.839000,-1.939000,3.588000,-1.130000,30.41
0.328411,0.531000,-0.164000,-0.831000,-1.817000,3.542000,-1.130000,30.41
0.328868,0.532000,-0.168000,-0.830000,-1.649000,3.145000,-1.038000,30.37
0.329289,0.526000,-0.157000,-0.829000,-1.664000,2.962000,-0.748000,30.37
0.329711,0.521000,-0.163000,-0.844000,-1.496000,3.084000,-0.672000,30.41
0.330129,0.526000,-0.167000,-0.836000,-1.069000,2.992000,-0.427000,30.41
0.330546,0.527000,-0.172000,-0.833000,-1.267000,2.931000,-0.382000,30.46
0.330966,0.531000,-0.167000,-0.824000,-1.389000,2.855000,-0.504000,30.46
0.331392,0.530000,-0.168000,-0.836000,-1.374000,2.733000,-0.351000,30.46
0.331799,0.524000,-0.177000,-0.835000,-1.191000,2.382000,-0.458000,30.41
0.332211,0.525000,-0.173000,-0.838000,-1.542000,2.595000,-0.534000,30.32
0.332713,0.533000,-0.168000,-0.836000,-1.450000,2.626000,-0.550000,30.37
0.333320,0.530000,-0.173000,-0.836000,-1.542000,2.626000,-0.672000,30.46
0.333778,0.526000,-0.162000,-0.833000,-1.344000,2.504000,-0.336000,30.32
0.334216,0.523000,-0.169000,-0.833000,-1.313000,2.824000,-0.656000,30.41
0.334653,0.527000,-0.176000,-0.836000,-1.267000,2.840000,-0.550000,30.41
0.335099,0.520000,-0.177000,-0.838000,-1.405000,3.145000,-0.687000,30.27
0.335565,0.529000,-0.173000,-0.830000,-1.420000,2.977000,-0.656000,30.37
0.335994,0.528000,-0.170000,-0.834000,-1.145000,3.237000,-0.718000,30.41
0.336427,0.529000,-0.177000,-0.832000,-1.450000,3.237000,-0.794000,30.32
0.336867,0.523000,-0.173000,-0.836000,-1.389000,3.405000,-0.947000,30.37
0.337327,0.525000,-0.175000,-0.839000,-0.840000,3.893000,-1.053000,30.37
0.337780,0.524000,-0.171000,-0.825000,-1.573000,3.802000,-0.901000,30.37
0.338196,0.527000,-0.174000,-0.835000,-1.099000,3.389000,-1.084000,30.41
0.338607,0.530000,-0.166000,-0.836000,-1.374000,3.893000,-1.237000,30.41
0.339085,0.527000,-0.171000,-0.834000,-1.328000,4.366000,-1.206000,30.37
0.339611,0.523000,-0.166000,-0.836000,-1.908000,4.550000,-1.023000,30.32
0.340072,0.532000,-0.172000,-0.828000,-1.420000,3.588000,-1.038000,30.41
0.340518,0.529000,-0.168000,-0.830000,-1.160000,3.160000,-0.870000,30.32
0.340957,0.537000,-0.165000,-0.829000,-1.710000,3.008000,-0.794000,30.32
0.341391,0.534000,-0.168000,-0.833000,-1.695000,3.191000,-0.458000,30.37
0.341824,0.528000,-0.166000,-0.833000,-1.557000,3.221000,-0.382000,30.32
0.342256,0.526000,-0.163000,-0.826000,-1.527000,3.023000,-0.031000,30.32
0.342678,0.535000,-0.166000,-0.835000,-1.084000,2.641000,0.076000,30.41
0.343109,0.525000,-0.170000,-0.826000,-1.282000,1.985000,0.275000,30.37
0.343533,0.530000,-0.162000,-0.835000,-1.237000,2.092000,0.351000,30.27
0.343998,0.520000,-0.169000,-0.830000,-0.565000,2.305000,0.458000,30.41
0.344439,0.531000,-0.176000,-0.829000,-0.336000,2.351000,0.458000,30.32
0.344858,0.527000,-0.168000,-0.832000,-0.443000,2.366000,0.519000,30.41
0.345279,0.527000,-0.168000,-0.838000,-0.412000,2.153000,0.626000,30.37
0.345685,0.528000,-0.171000,-0.834000,-0.137000,2.137000,0.397000,30.37
0.346089,0.530000,-0.174000,-0.832000,-0.275000,2.427000,0.504000,30.41
0.346503,0.525000,-0.171000,-0.835000,-0.137000,2.519000,0.473000,30.32
0.346915,0.528000,-0.177000,-0.837000,-0.214000,2.305000,0.595000,30.32
0.347318,0.526000,-0.174000,-0.833000,0.015000,2.351000,0.687000,30.37
0.347722,0.528000,-0.169000,-0.827000,0.366000,2.489000,0.565000,30.37
0.348126,0.528000,-0.168000,-0.831000,0.611000,2.718000,0.870000,30.41
0.348531,0.527000,-0.170000,-0.844000,0.595000,2.489000,0.779000,30.32
0.348947,0.521000,-0.172000,-0.844000,0.763000,2.534000,0.840000,30.37
0.349364,0.524000,-0.175000,-0.826000,0.550000,2.672000,0.748000,30.37
0.349769,0.524000,-0.180000,-0.839000,0.565000,2.519000,0.504000,30.37
0.350179,0.531000,-0.177000,-0.837000,0.366000,2.595000,0.779000,30.41
0.350585,0.531000,-0.173000,-0.849000,0.489000,2.244000,0.855000,30.41
0.350995,0.526000,-0.180000,-0.833000,0.672000,2.290000,0.901000,30.37
0.351399,0.526000,-0.184000,-0.829000,0.702000,1.985000,0.611000,30.46
0.351822,0.523000,-0.178000,-0.835000,0.397000,2.366000,0.473000,30.32
0.352245,0.521000,-0.187000,-0.833000,-0.076000,2.626000,0.244000,30.41
0.352655,0.529000,-0.179000,-0.827000,-0.168000,2.290000,0.092000,30.41
0.353099,0.519000,-0.181000,-0.827000,-0.168000,2.015000,0.137000,30.37
0.353511,0.525000,-0.178000,-0.835000,0.107000,1.832000,0.366000,30.46
0.353950,0.527000,-0.173000,-0.833000,0.290000,1.847000,0.580000,30.41
0.354537,0.526000,-0.174000,-0.845000,0.412000,1.756000,0.611000,30.41
0.355107,0.522000,-0.177000,-0.837000,0.870000,2.046000,0.947000,30.32
0.355540,0.521000,-0.180000,-0.827000,1.069000,2.427000,1.160000,30.37
0.355980,0.514000,-0.168000,-0.829000,1.313000,2.611000,1.252000,30.37
0.356403,0.524000,-0.172000,-0.837000,1.954000,2.916000,1.649000,30.51
0.356807,0.520000,-0.180000,-0.835000,1.847000,3.435000,1.573000,30.32
0.357218,0.513000,-0.177000,-0.826000,1.878000,3.298000,1.252000,30.37
0.357626,0.515000,-0.184000,-0.833000,2.076000,3.435000,1.252000,30.37
0.358030,0.515000,-0.191000,-0.829000,1.618000,4.137000,0.992000,30.37
0.358435,0.522000,-0.197000,-0.827000,1.374000,4.534000,0.656000,30.41
0.358863,0.517000,-0.189000,-0.834000,1.450000,4.855000,0.504000,30.41
0.359265,0.517000,-0.190000,-0.838000,1.237000,5.511000,0.275000,30.46
0.359694,0.521000,-0.195000,-0.832000,1.206000,5.756000,0.031000,30.46
0.360101,0.527000,-0.197000,-0.826000,1.237000,5.863000,0.000000,30.37
0.360511,0.524000,-0.195000,-0.831000,1.267000,5.832000,-0.076000,30.32
0.360918,0.525000,-0.199000,-0.829000,1.160000,5.878000,-0.290000,30.41
0.361336,0.522000,-0.190000,-0.829000,1.511000,6.153000,-0.473000,30.37
0.361769,0.525000,-0.198000,-0.829000,1.023000,6.153000,-0.214000,30.37
0.362217,0.533000,-0.183000,-0.825000,1.115000,6.275000,0.015000,30.37
0.362648,0.528000,-0.193000,-0.828000,1.542000,5.542000,0.076000,30.41
0.363085,0.521000,-0.169000,-0.833000,1.908000,5.695000,-0.504000,30.41
0.363499,0.529000,-0.192000,-0.822000,1.466000,5.679000,0.168000,30.27
0.364015,0.542000,-0.178000,-0.838000,2.061000,5.221000,0.687000,30.46
0.364596,0.524000,-0.183000,-0.830000,2.580000,4.962000,1.115000,30.32
0.365049,0.527000,-0.193000,-0.836000,2.626000,4.870000,1.298000,30.32
0.365474,0.531000,-0.197000,-0.836000,2.412000,5.267000,1.084000,30.32
0.365892,0.535000,-0.197000,-0.826000,2.672000,4.305000,1.267000,30.37
0.366314,0.531000,-0.206000,-0.816000,2.290000,4.504000,1.053000,30.37
0.366753,0.527000,-0.196000,-0.814000,2.229000,4.412000,0.885000,30.41
0.367179,0.528000,-0.202000,-0.826000,2.168000,4.779000,0.824000,30.41
0.367592,0.528000,-0.203000,-0.827000,1.481000,4.855000,0.580000,30.32
0.368014,0.534000,-0.199000,-0.826000,1.038000,5.160000,0.641000,30.37
0.368435,0.531000,-0.204000,-0.823000,1.359000,5.344000,0.718000,30.27
0.368928,0.527000,-0.203000,-0.820000,1.206000,5.008000,0.687000,30.41
0.369393,0.523000,-0.202000,-0.825000,1.374000,4.977000,0.626000,30.41
0.369840,0.531000,-0.208000,-0.832000,1.420000,5.313000,0.718000,30.46
0.370326,0.534000,-0.210000,-0.829000,0.992000,5.359000,0.748000,30.37
0.370780,0.532000,-0.207000,-0.820000,1.115000,4.901000,0.595000,30.37
0.371341,0.535000,-0.213000,-0.829000,0.611000,5.008000,0.519000,30.22
0.371840,0.538000,-0.210000,-0.822000,0.550000,4.931000,0.275000,30.32
0.372277,0.538000,-0.205000,-0.825000,0.382000,4.611000,0.137000,30.37
0.372684,0.531000,-0.200000,-0.828000,0.351000,3.954000,0.321000,30.41
0.373095,0.537000,-0.208000,-0.827000,0.183000,3.969000,0.229000,30.32
0.373503,0.530000,-0.209000,-0.826000,0.000000,3.618000,0.458000,30.32
0.373926,0.538000,-0.206000,-0.823000,-0.076000,3.282000,0.092000,30.32
0.374343,0.530000,-0.215000,-0.819000,-0.198000,3.496000,0.107000,30.46
0.374761,0.533000,-0.217000,-0.821000,-0.595000,3.557000,-0.137000,30.41
0.375179,0.538000,-0.219000,-0.818000,-0.611000,3.481000,-0.107000,30.32
0.375594,0.538000,-0.214000,-0.824000,-0.687000,3.038000,-0.321000,30.41
0.376012,0.529000,-0.206000,-0.836000,-0.641000,2.992000,-0.290000,30.46
0.376427,0.532000,-0.203000,-0.822000,-0.305000,3.008000,0.076000,30.37
0.376844,0.527000,-0.212000,-0.814000,-0.336000,3.008000,0.092000,30.41
0.377257,0.533000,-0.207000,-0.821000,-0.061000,3.023000,0.168000,30.32
0.377665,0.533000,-0.208000,-0.823000,0.046000,3.115000,0.244000,30.32
0.378077,0.539000,-0.210000,-0.818000,0.168000,3.344000,0.183000,30.37
0.378524,0.533000,-0.215000,-0.825000,0.641000,3.160000,0.137000,30.37
0.378956,0.537000,-0.219000,-0.813000,0.244000,3.389000,0.214000,30.41
0.379385,0.537000,-0.217000,-0.822000,0.061000,3.405000,0.076000,30.32
0.379800,0.531000,-0.214000,-0.819000,-0.122000,3.389000,-0.107000,30.22
0.380224,0.537000,-0.216000,-0.815000,-0.229000,3.282000,-0.092000,30.37
0.380647,0.534000,-0.219000,-0.816000,-0.504000,3.344000,-0.244000,30.37
0.381065,0.532000,-0.216000,-0.822000,-0.687000,2.901000,-0.168000,30.41
0.381574,0.538000,-0.213000,-0.816000,-0.427000,3.130000,0.000000,30.41
0.382157,0.535000,-0.210000,-0.823000,-0.504000,3.313000,-0.076000,30.37
0.382648,0.530000,-0.217000,-0.815000,-0.183000,2.916000,0.122000,30.37
0.383088,0.534000,-0.211000,-0.824000,-0.076000,3.328000,0.153000,30.46
0.383523,0.532000,-0.213000,-0.823000,-0.031000,3.130000,0.305000,30.41
0.383990,0.532000,-0.216000,-0.830000,0.244000,2.840000,0.321000,30.41
0.384420,0.540000,-0.214000,-0.819000,0.122000,3.038000,0.229000,30.27
0.384822,0.538000,-0.222000,-0.816000,0.031000,3.053000,0.275000,30.37
0.385233,0.538000,-0.214000,-0.815000,-0.015000,2.840000,0.107000,30.37
0.385645,0.526000,-0.218000,-0.820000,-0.061000,2.534000,0.229000,30.32
0.386054,0.537000,-0.219000,-0.810000,-0.275000,2.580000,0.137000,30.32
0.386463,0.528000,-0.219000,-0.827000,-0.641000,2.504000,0.198000,30.37
0.386874,0.529000,-0.214000,-0.817000,-0.718000,2.519000,0.015000,30.46
0.387304,0.530000,-0.219000,-0.823000,-0.855000,2.504000,0.061000,30.32
0.387725,0.531000,-0.217000,-0.810000,-0.840000,2.351000,-0.168000,30.41
0.388136,0.536000,-0.223000,-0.815000,-0.962000,2.733000,-0.168000,30.32
0.388550,0.536000,-0.220000,-0.815000,-0.824000,2.611000,-0.290000,30.37
0.388980,0.537000,-0.219000,-0.818000,-0.931000,2.672000,-0.214000,30.37
0.389393,0.529000,-0.217000,-0.823000,-0.733000,2.718000,-0.153000,30.41
0.389821,0.526000,-0.218000,-0.813000,-0.748000,2.870000,-0.214000,30.41
0.390234,0.528000,-0.218000,-0.829000,-0.504000,2.947000,-0.168000,30.46
0.390647,0.529000,-0.225000,-0.822000,-0.382000,3.038000,-0.244000,30.37
0.391065,0.529000,-0.218000,-0.820000,-0.519000,2.977000,-0.305000,30.37
0.391551,0.531000,-0.220000,-0.809000,-0.473000,3.115000,-0.092000,30.41
0.392102,0.525000,-0.224000,-0.815000,-0.718000,3.267000,-0.229000,30.32
0.392552,0.534000,-0.219000,-0.817000,-0.595000,3.160000,-0.336000,30.27
0.392996,0.531000,-0.228000,-0.821000,-0.550000,3.374000,-0.412000,30.46
0.393429,0.535000,-0.219000,-0.815000,-0.397000,3.344000,-0.290000,30.41
0.393926,0.532000,-0.220000,-0.828000,-0.321000,3.374000,-0.336000,30.41
0.394409,0.529000,-0.220000,-0.814000,-0.198000,3.374000,-0.214000,30.32
0.394864,0.537000,-0.223000,-0.818000,-0.397000,3.130000,-0.321000,30.37
0.395343,0.536000,-0.219000,-0.822000,-0.412000,2.626000,-0.168000,30.37
0.395792,0.535000,-0.224000,-0.819000,-0.733000,2.702000,-0.336000,30.32
0.396208,0.531000,-0.221000,-0.810000,-1.038000,2.641000,-0.427000,30.41
0.396627,0.525000,-0.227000,-0.820000,-1.298000,2.412000,-0.611000,30.41
0.397037,0.529000,-0.220000,-0.825000,-1.252000,2.840000,-0.626000,30.37
0.397455,0.531000,-0.221000,-0.816000,-1.267000,2.824000,-0.656000,30.27
0.397867,0.530000,-0.225000,-0.826000,-1.267000,2.931000,-0.840000,30.32
0.398288,0.526000,-0.224000,-0.820000,-1.328000,2.763000,-0.580000,30.41
0.398722,0.532000,-0.225000,-0.817000,-1.481000,2.855000,-0.718000,30.27
0.399137,0.537000,-0.223000,-0.818000,-1.603000,2.779000,-0.580000,30.37
0.399555,0.538000,-0.219000,-0.819000,-1.374000,2.397000,-0.427000,30.37
0.399977,0.536000,-0.220000,-0.812000,-1.344000,1.756000,-0.458000,30.32
0.400388,0.525000,-0.210000,-0.815000,-1.038000,1.924000,-0.382000,30.41
0.400799,0.534000,-0.214000,-0.812000,-1.008000,1.985000,-0.061000,30.37
0.401218,0.527000,-0.209000,-0.818000,-0.550000,1.924000,0.260000,30.41
0.401713,0.527000,-0.218000,-0.815000,-0.260000,2.519000,0.382000,30.32
0.402281,0.532000,-0.220000,-0.820000,-0.275000,2.168000,0.412000,30.41
0.402722,0.530000,-0.211000,-0.828000,0.198000,2.061000,0.748000,30.32
0.403212,0.534000,-0.210000,-0.823000,0.672000,1.863000,0.885000,30.37
0.403670,0.523000,-0.231000,-0.822000,0.977000,2.351000,1.023000,30.32
0.404113,0.530000,-0.240000,-0.822000,0.702000,2.702000,0.733000,30.32
0.404541,0.530000,-0.250000,-0.815000,0.183000,2.824000,0.076000,30.41
0.404954,0.528000,-0.234000,-0.817000,-0.611000,3.344000,-0.275000,30.37
0.405367,0.527000,-0.226000,-0.816000,-0.840000,3.282000,-0.519000,30.37
0.405778,0.526000,-0.223000,-0.817000,-0.626000,3.206000,-0.504000,30.41
0.406185,0.531000,-0.218000,-0.825000,-0.611000,3.130000,-0.229000,30.41
0.406597,0.532000,-0.218000,-0.825000,-0.656000,2.779000,-0.046000,30.41
0.407014,0.528000,-0.220000,-0.822000,-0.641000,2.748000,0.046000,30.37
0.407413,0.531000,-0.220000,-0.814000,-0.397000,2.260000,0.397000,30.37
0.407820,0.532000,-0.218000,-0.814000,-0.061000,2.305000,0.687000,30.41
0.408229,0.532000,-0.224000,-0.817000,0.321000,2.031000,0.733000,30.41
0.408631,0.526000,-0.220000,-0.814000,0.901000,1.847000,1.160000,30.32
0.409055,0.521000,-0.225000,-0.825000,1.069000,1.756000,1.099000,30.37
0.409466,0.528000,-0.225000,-0.823000,1.206000,2.183000,1.053000,30.46
0.409875,0.531000,-0.230000,-0.818000,1.191000,2.412000,1.252000,30.32
0.410269,0.528000,-0.233000,-0.818000,1.084000,2.214000,1.069000,30.41
0.410684,0.526000,-0.232000,-0.827000,1.069000,2.519000,0.885000,30.32
0.411091,0.531000,-0.237000,-0.812000,0.595000,2.840000,1.008000,30.27
0.411498,0.520000,-0.233000,-0.827000,0.641000,2.824000,0.702000,30.27
0.412042,0.524000,-0.235000,-0.822000,0.290000,3.160000,0.794000,30.32
0.412468,0.525000,-0.244000,-0.818000,-0.137000,3.328000,0.275000,30.32
0.412879,0.528000,-0.236000,-0.831000,-0.031000,3.328000,0.260000,30.37
0.413291,0.521000,-0.240000,-0.811000,-0.275000,3.038000,0.229000,30.37
0.413718,0.518000,-0.242000,-0.814000,-0.046000,3.359000,0.000000,30.37
0.414127,0.526000,-0.239000,-0.803000,-0.366000,3.176000,-0.214000,30.32
0.414542,0.530000,-0.240000,-0.821000,-0.550000,3.221000,0.015000,30.32
0.414964,0.522000,-0.234000,-0.819000,-0.580000,3.038000,-0.290000,30.37
0.415365,0.527000,-0.242000,-0.817000,-0.534000,3.115000,0.031000,30.37
0.415783,0.525000,-0.235000,-0.815000,-0.382000,2.885000,-0.107000,30.41
0.416196,0.528000,-0.239000,-0.822000,-0.565000,2.809000,-0.092000,30.41
0.416610,0.527000,-0.233000,-0.806000,-0.870000,2.962000,-0.229000,30.32
0.417014,0.527000,-0.241000,-0.812000,-1.359000,3.221000,-0.443000,30.46
0.417439,0.521000,-0.232000,-0.813000,-1.405000,3.206000,-0.763000,30.37
0.417851,0.526000,-0.242000,-0.815000,-1.466000,3.038000,-0.779000,30.41
0.418258,0.529000,-0.240000,-0.815000,-1.878000,3.008000,-0.840000,30.32
0.418681,0.528000,-0.240000,-0.814000,-1.863000,3.313000,-1.023000,30.37
0.419093,0.523000,-0.239000,-0.816000,-2.122000,2.901000,-0.992000,30.37
0.419501,0.520000,-0.242000,-0.813000,-2.168000,3.069000,-1.237000,30.41
0.419907,0.529000,-0.243000,-0.814000,-2.412000,3.176000,-1.328000,30.32
0.420330,0.528000,-0.232000,-0.809000,-2.824000,3.115000,-1.573000,30.32
0.420737,0.521000,-0.231000,-0.816000,-2.702000,3.008000,-1.695000,30.37
0.421143,0.532000,-0.236000,-0.819000,-2.718000,3.328000,-1.634000,30.37
0.421662,0.529000,-0.240000,-0.817000,-2.656000,3.099000,-1.756000,30.32
0.422243,0.532000,-0.233000,-0.818000,-2.702000,2.947000,-1.771000,30.41
0.422685,0.525000,-0.233000,-0.818000,-2.931000,3.069000,-1.969000,30.37
0.423117,0.527000,-0.233000,-0.816000,-2.809000,2.977000,-1.588000,30.37
0.423546,0.518000,-0.236000,-0.806000,-2.870000,3.145000,-1.802000,30.46
0.424024,0.526000,-0.237000,-0.816000,-2.748000,3.405000,-1.832000,30.32
0.424456,0.522000,-0.236000,-0.818000,-3.115000,3.084000,-1.832000,30.32
0.424874,0.530000,-0.234000,-0.817000,-3.466000,2.962000,-2.244000,30.27
0.425290,0.526000,-0.239000,-0.810000,-3.618000,3.145000,-2.229000,30.32
0.425697,0.529000,-0.232000,-0.812000,-3.710000,2.641000,-2.504000,30.41
0.426112,0.522000,-0.235000,-0.808000,-4.260000,2.885000,-2.473000,30.41
0.426522,0.533000,-0.239000,-0.820000,-4.611000,2.931000,-2.656000,30.32
0.426938,0.536000,-0.239000,-0.819000,-4.626000,2.687000,-2.916000,30.37
0.427376,0.525000,-0.231000,-0.812000,-4.779000,2.885000,-2.779000,30.41
0.427793,0.525000,-0.223000,-0.823000,-4.458000,2.672000,-2.840000,30.22
0.428228,0.525000,-0.227000,-0.818000,-4.366000,3.023000,-2.702000,30.41
0.428656,0.531000,-0.219000,-0.817000,-4.214000,3.084000,-2.473000,30.37
0.429083,0.526000,-0.222000,-0.819000,-3.893000,2.580000,-2.275000,30.37
0.429508,0.535000,-0.227000,-0.825000,-4.092000,3.053000,-2.260000,30.41
0.429917,0.524000,-0.220000,-0.816000,-3.847000,2.656000,-2.244000,30.32
0.430328,0.522000,-0.225000,-0.826000,-3.679000,2.855000,-2.244000,30.41
0.430740,0.534000,-0.228000,-0.814000,-3.740000,2.702000,-2.153000,30.37
0.431153,0.528000,-0.227000,-0.826000,-3.481000,2.565000,-1.939000,30.37
0.431561,0.531000,-0.229000,-0.816000,-3.496000,3.069000,-1.634000,30.41
0.432163,0.532000,-0.220000,-0.815000,-3.115000,2.366000,-1.695000,30.32
0.432634,0.531000,-0.226000,-0.811000,-3.313000,2.427000,-1.817000,30.32
0.433055,0.529000,-0.224000,-0.820000,-3.603000,2.321000,-1.740000,30.37
0.433479,0.526000,-0.227000,-0.811000,-3.649000,2.290000,-1.634000,30.37
0.433974,0.526000,-0.219000,-0.818000,-3.527000,2.183000,-1.679000,30.41
0.434444,0.523000,-0.221000,-0.808000,-3.221000,2.168000,-1.573000,30.22
0.434881,0.526000,-0.220000,-0.820000,-3.359000,2.244000,-1.527000,30.41
0.435312,0.531000,-0.224000,-0.826000,-3.252000,2.244000,-1.756000,30.37
0.435747,0.531000,-0.222000,-0.819000,-3.053000,2.321000,-1.679000,30.37
0.436179,0.533000,-0.220000,-0.819000,-2.947000,2.397000,-1.649000,30.41
0.436649,0.526000,-0.225000,-0.826000,-2.214000,3.145000,-1.695000,30.41
0.437131,0.523000,-0.229000,-0.819000,-2.840000,2.718000,-1.985000,30.37
0.437545,0.530000,-0.229000,-0.817000,-3.282000,3.084000,-2.351000,30.37
0.437954,0.528000,-0.221000,-0.806000,-3.481000,2.779000,-2.305000,30.37
0.438365,0.525000,-0.225000,-0.811000,-3.939000,3.557000,-2.397000,30.32
0.438796,0.523000,-0.220000,-0.813000,-3.496000,2.870000,-2.443000,30.32
0.439205,0.532000,-0.207000,-0.822000,-3.542000,2.885000,-2.015000,30.37
0.439619,0.528000,-0.207000,-0.833000,-2.901000,2.809000,-1.817000,30.37
0.440029,0.531000,-0.227000,-0.827000,-2.412000,3.084000,-1.588000,30.37
0.440440,0.525000,-0.233000,-0.819000,-3.084000,3.405000,-1.802000,30.41
0.440846,0.528000,-0.220000,-0.816000,-3.267000,3.863000,-2.046000,30.32
0.441256,0.532000,-0.198000,-0.821000,-3.435000,3.817000,-1.847000,30.37
0.441719,0.531000,-0.205000,-0.822000,-2.595000,3.893000,-1.313000,30.27
0.442251,0.532000,-0.219000,-0.814000,-1.863000,3.466000,-0.962000,30.41
0.442681,0.527000,-0.219000,-0.816000,-2.092000,3.359000,-0.840000,30.32
0.443109,0.538000,-0.216000,-0.818000,-2.061000,3.237000,-1.023000,30.32
0.443534,0.538000,-0.220000,-0.827000,-2.153000,3.206000,-0.992000,30.37
0.444020,0.539000,-0.216000,-0.821000,-2.031000,2.992000,-0.870000,30.37
0.444474,0.530000,-0.213000,-0.820000,-1.985000,2.565000,-0.870000,30.32
0.444912,0.524000,-0.213000,-0.810000,-1.786000,2.092000,-0.763000,30.32
0.445386,0.529000,-0.194000,-0.820000,-1.237000,1.832000,-0.473000,30.32
0.445816,0.531000,-0.199000,-0.836000,-0.870000,1.267000,-0.046000,30.37
0.446221,0.519000,-0.225000,-0.811000,-0.031000,1.603000,0.504000,30.37
0.446630,0.517000,-0.232000,-0.809000,-0.412000,1.618000,0.107000,30.41
0.447037,0.531000,-0.230000,-0.829000,-1.084000,2.046000,-0.351000,30.41
0.447446,0.518000,-0.243000,-0.819000,-1.756000,2.534000,-0.702000,30.27
0.447861,0.521000,-0.230000,-0.822000,-2.260000,2.580000,-1.282000,30.37
0.448277,0.520000,-0.229000,-0.816000,-3.038000,3.130000,-2.015000,30.46
0.448705,0.530000,-0.228000,-0.829000,-3.466000,3.588000,-2.290000,30.32
0.449115,0.531000,-0.223000,-0.821000,-3.603000,3.756000,-2.275000,30.32
0.449523,0.527000,-0.224000,-0.821000,-3.802000,3.817000,-2.473000,30.37
0.449947,0.530000,-0.218000,-0.821000,-3.832000,3.832000,-2.611000,30.37
0.450350,0.524000,-0.206000,-0.827000,-3.893000,3.481000,-2.641000,30.37
0.450763,0.531000,-0.207000,-0.827000,-3.145000,2.519000,-2.763000,30.41
0.451173,0.531000,-0.221000,-0.819000,-2.931000,2.168000,-2.611000,30.32
0.451618,0.539000,-0.192000,-0.827000,-2.702000,2.824000,-1.557000,30.27
0.452161,0.536000,-0.195000,-0.827000,-1.374000,2.260000,-0.443000,30.37
0.452672,0.536000,-0.192000,-0.819000,-0.168000,2.061000,0.321000,30.37
0.453104,0.532000,-0.203000,-0.820000,0.107000,2.275000,0.779000,30.32
0.453561,0.521000,-0.207000,-0.825000,0.916000,2.183000,1.298000,30.32
0.454021,0.526000,-0.208000,-0.826000,1.435000,2.794000,1.481000,30.37
0.454445,0.530000,-0.212000,-0.822000,1.634000,2.977000,1.557000,30.37
0.454851,0.525000,-0.213000,-0.815000,1.557000,2.977000,1.588000,30.32
0.455271,0.522000,-0.224000,-0.817000,1.405000,3.313000,1.282000,30.32
0.455683,0.527000,-0.221000,-0.821000,1.420000,3.176000,1.160000,30.32
0.456092,0.522000,-0.219000,-0.811000,0.977000,3.328000,0.870000,30.27
0.456502,0.518000,-0.238000,-0.819000,0.641000,3.542000,0.504000,30.37
0.456902,0.522000,-0.234000,-0.810000,0.046000,3.954000,0.260000,30.32
0.457314,0.517000,-0.229000,-0.816000,-0.489000,4.244000,-0.092000,30.32
0.457729,0.523000,-0.220000,-0.824000,-0.412000,4.244000,-0.473000,30.32
0.458152,0.536000,-0.215000,-0.824000,-0.672000,4.076000,-0.473000,30.37
0.458565,0.536000,-0.230000,-0.819000,-0.626000,4.321000,-0.397000,30.37
0.459001,0.521000,-0.242000,-0.818000,-0.763000,3.893000,-0.885000,30.32
0.459415,0.526000,-0.242000,-0.816000,-1.954000,4.656000,-1.542000,30.32
0.459844,0.527000,-0.240000,-0.816000,-2.718000,4.672000,-2.214000,30.37
0.460256,0.531000,-0.241000,-0.812000,-3.664000,5.237000,-2.534000,30.37
0.460670,0.523000,-0.230000,-0.811000,-4.229000,4.840000,-3.267000,30.37
0.461102,0.531000,-0.235000,-0.819000,-4.718000,5.176000,-3.557000,30.32
0.461534,0.527000,-0.224000,-0.814000,-5.466000,5.099000,-4.015000,30.32
0.462049,0.529000,-0.222000,-0.822000,-5.542000,4.824000,-4.244000,30.27
0.462612,0.535000,-0.218000,-0.816000,-6.122000,4.489000,-4.504000,30.37
0.463055,0.540000,-0.207000,-0.820000,-6.107000,4.061000,-3.969000,30.37
0.463542,0.544000,-0.201000,-0.819000,-5.756000,3.191000,-3.649000,30.41
0.464051,0.532000,-0.197000,-0.813000,-5.221000,2.840000,-3.359000,30.32
0.464502,0.525000,-0.198000,-0.826000,-4.504000,3.221000,-2.870000,30.27
0.464927,0.535000,-0.204000,-0.811000,-3.542000,3.679000,-2.748000,30.32
0.465352,0.539000,-0.209000,-0.831000,-3.466000,4.519000,-2.412000,30.41
0.465766,0.533000,-0.210000,-0.821000,-2.626000,4.092000,-2.336000,30.22
0.466188,0.532000,-0.211000,-0.821000,-2.092000,4.198000,-2.107000,30.41
0.466606,0.533000,-0.222000,-0.823000,-2.305000,4.733000,-2.198000,30.37
0.467022,0.528000,-0.226000,-0.820000,-2.336000,4.656000,-2.504000,30.41
0.467432,0.526000,-0.224000,-0.813000,-3.420000,5.389000,-3.206000,30.32
0.467852,0.535000,-0.220000,-0.811000,-3.893000,4.992000,-3.542000,30.41
0.468285,0.535000,-0.221000,-0.820000,-4.046000,4.473000,-4.046000,30.46
0.468724,0.532000,-0.215000,-0.814000,-4.076000,5.115000,-4.305000,30.37
0.469154,0.546000,-0.216000,-0.809000,-4.855000,5.084000,-4.534000,30.32
0.469734,0.535000,-0.221000,-0.825000,-5.359000,5.313000,-4.824000,30.32
0.470182,0.541000,-0.216000,-0.825000,-5.344000,5.130000,-4.702000,30.32
0.470619,0.538000,-0.208000,-0.821000,-5.298000,4.580000,-4.748000,30.37
0.471041,0.538000,-0.202000,-0.819000,-4.901000,4.092000,-4.916000,30.27
0.471479,0.543000,-0.205000,-0.824000,-4.168000,2.855000,-4.977000,30.32
0.471911,0.546000,-0.192000,-0.822000,-4.885000,3.756000,-4.061000,30.32
0.472341,0.543000,-0.194000,-0.809000,-4.061000,3.023000,-3.618000,30.32
0.472764,0.541000,-0.203000,-0.818000,-3.740000,3.359000,-3.511000,30.37
0.473191,0.545000,-0.201000,-0.813000,-3.725000,3.191000,-3.603000,30.27
0.473611,0.547000,-0.199000,-0.823000,-3.481000,2.870000,-3.313000,30.32
0.474031,0.529000,-0.207000,-0.817000,-3.618000,3.954000,-3.435000,30.41
0.474636,0.537000,-0.208000,-0.815000,-3.282000,2.672000,-3.282000,30.32
0.475450,0.541000,-0.198000,-0.815000,-3.420000,3.267000,-3.008000,30.27
0.476294,0.536000,-0.206000,-0.825000,-2.962000,3.389000,-2.855000,30.37
0.477370,0.537000,-0.198000,-0.822000,-3.145000,3.389000,-2.870000,30.32
0.487201,0.535000,-0.194000,-0.820000,-2.534000,3.618000,-2.840000,30.32
0.492712,0.537000,-0.194000,-0.823000,-2.290000,3.832000,-2.718000,30.27
0.493293,0.535000,-0.197000,-0.820000,-2.305000,4.534000,-2.534000,30.27
0.493832,0.539000,-0.192000,-0.819000,-2.015000,4.504000,-2.321000,30.37
0.494399,0.543000,-0.199000,-0.817000,-2.046000,4.473000,-2.244000,30.41
0.495394,0.541000,-0.191000,-0.825000,-1.542000,4.290000,-2.046000,30.32
0.501113,0.539000,-0.192000,-0.825000,-1.466000,4.366000,-1.863000,30.37
0.501862,0.542000,-0.198000,-0.829000,-1.374000,4.656000,-1.649000,30.27
0.504714,0.543000,-0.194000,-0.812000,-1.359000,4.656000,-1.420000,30.22
0.505612,0.547000,-0.196000,-0.814000,-0.794000,3.557000,-1.267000,30.32
0.506094,0.545000,-0.200000,-0.822000,-1.099000,4.061000,-1.267000,30.32
0.506555,0.545000,-0.194000,-0.819000,-1.038000,3.786000,-0.977000,30.27
0.507050,0.544000,-0.201000,-0.813000,-0.763000,3.374000,-0.992000,30.37
0.510057,0.549000,-0.203000,-0.820000,-0.931000,3.023000,-1.023000,30.22
0.510702,0.540000,-0.202000,-0.818000,-1.130000,3.115000,-0.901000,30.41
0.511277,0.533000,-0.203000,-0.815000,-0.824000,2.687000,-0.977000,30.37
0.511767,0.544000,-0.202000,-0.819000,-1.191000,3.038000,-0.885000,30.37
0.512371,0.537000,-0.201000,-0.822000,-1.160000,2.992000,-0.840000,30.41
0.512935,0.544000,-0.205000,-0.819000,-1.145000,3.099000,-0.992000,30.32
0.519206,0.547000,-0.194000,-0.823000,-1.298000,3.374000,-0.916000,30.32
0.521399,0.550000,-0.198000,-0.819000,-1.282000,3.511000,-0.733000,30.37
0.522242,0.543000,-0.198000,-0.823000,-1.450000,3.603000,-0.718000,30.37
0.522959,0.542000,-0.201000,-0.815000,-1.084000,3.328000,-0.382000,30.32
0.524235,0.539000,-0.198000,-0.815000,-0.809000,3.176000,-0.229000,30.32
0.524722,0.541000,-0.197000,-0.809000,-0.626000,2.977000,-0.137000,30.27
0.525186,0.545000,-0.203000,-0.817000,-0.550000,3.023000,0.000000,30.27
0.529778,0.541000,-0.205000,-0.817000,-0.763000,2.977000,-0.031000,30.37
0.531031,0.534000,-0.202000,-0.805000,-0.763000,2.595000,-0.137000,30.32
0.531719,0.540000,-0.205000,-0.810000,-1.130000,2.565000,-0.595000,30.41
0.532200,0.543000,-0.211000,-0.812000,-1.359000,2.519000,-0.779000,30.37
0.532654,0.540000,-0.195000,-0.812000,-1.603000,2.718000,-0.809000,30.22
0.533128,0.546000,-0.202000,-0.816000,-1.603000,2.305000,-0.687000,30.32
0.533576,0.538000,-0.206000,-0.816000,-1.496000,2.321000,-0.763000,30.32
0.534629,0.539000,-0.204000,-0.813000,-2.031000,2.641000,-0.931000,30.37
0.535463,0.542000,-0.203000,-0.827000,-2.229000,2.733000,-1.191000,30.27
0.537067,0.541000,-0.203000,-0.817000,-2.275000,2.962000,-1.069000,30.32
0.539297,0.545000,-0.199000,-0.810000,-2.550000,2.840000,-1.359000,30.32
0.540239,0.541000,-0.194000,-0.812000,-2.489000,2.443000,-1.344000,30.32
0.542457,0.543000,-0.198000,-0.812000,-2.198000,2.137000,-1.298000,30.37
0.543154,0.541000,-0.202000,-0.815000,-2.397000,2.000000,-1.252000,30.37
0.543765,0.549000,-0.195000,-0.806000,-2.183000,2.137000,-0.794000,30.32
0.546237,0.544000,-0.200000,-0.808000,-1.954000,2.046000,-0.702000,30.32
0.546860,0.540000,-0.199000,-0.813000,-1.893000,2.305000,-0.840000,30.22
0.555292,0.546000,-0.193000,-0.820000,-1.557000,2.137000,-0.321000,30.37
0.556005,0.546000,-0.201000,-0.817000,-1.221000,2.122000,-0.489000,30.37
0.556507,0.538000,-0.194000,-0.819000,-1.115000,2.031000,-0.305000,30.32
0.559295,0.539000,-0.201000,-0.816000,-0.794000,2.000000,-0.427000,30.22
0.565819,0.546000,-0.195000,-0.817000,-0.779000,2.107000,-0.076000,30.37
0.571366,0.546000,-0.198000,-0.822000,-0.977000,2.321000,-0.107000,30.27
0.571946,0.540000,-0.201000,-0.816000,-1.313000,2.137000,-0.046000,30.32
0.572420,0.537000,-0.208000,-0.819000,-1.344000,2.168000,-0.092000,30.41
0.572894,0.547000,-0.199000,-0.818000,-1.405000,2.275000,-0.076000,30.37
0.573348,0.543000,-0.198000,-0.814000,-1.359000,1.847000,-0.031000,30.27
0.573787,0.542000,-0.200000,-0.812000,-1.328000,1.557000,0.107000,30.27
0.574231,0.533000,-0.200000,-0.819000,-1.069000,1.588000,0.107000,30.41
0.574671,0.537000,-0.203000,-0.814000,-1.099000,1.664000,0.015000,30.32
0.575114,0.539000,-0.206000,-0.820000,-1.084000,2.092000,0.244000,30.27
0.575618,0.541000,-0.207000,-0.822000,-1.130000,1.817000,0.260000,30.37
0.576060,0.541000,-0.207000,-0.815000,-1.115000,1.863000,0.229000,30.22
0.576493,0.538000,-0.212000,-0.821000,-0.779000,1.466000,0.214000,30.22
0.576929,0.535000,-0.207000,-0.820000,-0.748000,1.420000,0.015000,30.37
0.577376,0.538000,-0.211000,-0.818000,-0.702000,1.450000,0.061000,30.27
0.577811,0.541000,-0.200000,-0.825000,-0.672000,1.740000,0.412000,30.37
0.578444,0.537000,-0.197000,-0.821000,-0.427000,1.985000,0.305000,30.22
0.579665,0.530000,-0.203000,-0.829000,-0.137000,2.168000,0.519000,30.41
0.580220,0.544000,-0.203000,-0.825000,-0.229000,2.153000,0.626000,30.37
0.580675,0.546000,-0.207000,-0.823000,-0.687000,2.260000,0.534000,30.32
0.581116,0.545000,-0.196000,-0.823000,-0.763000,2.366000,0.855000,30.41
0.581564,0.540000,-0.204000,-0.830000,-0.183000,2.214000,1.023000,30.32
0.583311,0.538000,-0.207000,-0.823000,0.092000,1.939000,1.084000,30.22
0.588504,0.540000,-0.205000,-0.821000,0.458000,1.573000,1.420000,30.37
0.589073,0.542000,-0.215000,-0.815000,0.534000,1.618000,1.481000,30.32
0.593081,0.538000,-0.206000,-0.818000,0.626000,1.298000,1.496000,30.41
0.595633,0.535000,-0.210000,-0.814000,0.702000,1.023000,1.740000,30.41
0.596911,0.525000,-0.210000,-0.816000,0.366000,1.221000,1.573000,30.37
0.602247,0.530000,-0.211000,-0.819000,0.061000,1.496000,1.466000,30.37
0.606847,0.539000,-0.210000,-0.820000,0.153000,1.069000,1.511000,30.32
0.608200,0.543000,-0.204000,-0.820000,-0.229000,0.870000,1.557000,30.41
0.611461,0.532000,-0.216000,-0.819000,0.092000,0.168000,1.420000,30.32
0.612039,0.535000,-0.217000,-0.822000,0.000000,0.366000,1.298000,30.27
0.612503,0.534000,-0.210000,-0.825000,0.046000,0.382000,1.176000,30.37
0.616926,0.534000,-0.214000,-0.828000,-0.183000,0.351000,1.267000,30.41
0.620132,0.534000,-0.211000,-0.825000,0.031000,0.351000,1.420000,30.32
0.622468,0.530000,-0.205000,-0.826000,0.107000,0.550000,1.832000,30.27
0.628056,0.539000,-0.201000,-0.833000,0.351000,0.672000,2.214000,30.18
0.629791,0.532000,-0.211000,-0.826000,1.160000,0.260000,2.382000,30.37
0.630359,0.532000,-0.209000,-0.818000,1.435000,0.214000,2.397000,30.41
0.631537,0.534000,-0.210000,-0.826000,1.588000,0.229000,2.718000,30.32
0.633308,0.529000,-0.215000,-0.824000,2.168000,0.000000,2.840000,30.37
0.635759,0.530000,-0.215000,-0.823000,2.489000,-0.305000,3.084000,30.27
0.636903,0.534000,-0.216000,-0.825000,2.962000,-0.198000,3.191000,30.41
0.637502,0.527000,-0.223000,-0.822000,3.145000,0.153000,3.466000,30.32
0.638571,0.528000,-0.222000,-0.819000,3.267000,0.244000,3.618000,30.27
0.639357,0.520000,-0.219000,-0.826000,2.809000,0.443000,3.328000,30.27
0.639842,0.519000,-0.225000,-0.813000,2.809000,0.901000,3.160000,30.37
0.640291,0.514000,-0.234000,-0.823000,2.580000,1.481000,2.748000,30.32
0.640729,0.521000,-0.226000,-0.816000,2.336000,1.405000,2.580000,30.32
0.641175,0.518000,-0.229000,-0.820000,2.061000,1.863000,2.321000,30.27
0.641704,0.520000,-0.231000,-0.820000,2.015000,1.954000,1.939000,30.37
0.642219,0.525000,-0.235000,-0.822000,1.405000,2.443000,1.802000,30.32
0.642844,0.520000,-0.229000,-0.803000,1.313000,2.290000,1.435000,30.32
0.643304,0.527000,-0.234000,-0.821000,1.069000,2.168000,1.069000,30.27
0.643742,0.524000,-0.234000,-0.808000,0.718000,2.015000,0.901000,30.37
0.644262,0.520000,-0.233000,-0.809000,0.473000,2.198000,0.870000,30.27
0.644933,0.518000,-0.230000,-0.821000,0.580000,2.305000,0.733000,30.22
0.645411,0.519000,-0.227000,-0.819000,0.458000,2.229000,0.733000,30.41
0.645852,0.517000,-0.231000,-0.817000,0.229000,2.550000,0.504000,30.27
0.646383,0.517000,-0.233000,-0.820000,-0.076000,2.443000,0.412000,30.41
0.646984,0.529000,-0.234000,-0.817000,-0.504000,2.901000,0.107000,30.32
0.647466,0.513000,-0.232000,-0.816000,-0.718000,2.870000,0.076000,30.32
0.647920,0.521000,-0.230000,-0.822000,-1.008000,3.389000,-0.183000,30.37
0.648356,0.525000,-0.236000,-0.823000,-1.298000,2.901000,-0.229000,30.37
0.648811,0.525000,-0.227000,-0.823000,-1.252000,3.176000,-0.366000,30.41
0.649264,0.524000,-0.235000,-0.819000,-1.282000,3.069000,-0.305000,30.32
0.649746,0.520000,-0.234000,-0.824000,-1.389000,3.115000,-0.656000,30.22
0.650226,0.525000,-0.232000,-0.816000,-1.863000,3.511000,-0.458000,30.27
0.650688,0.524000,-0.235000,-0.819000,-2.122000,3.328000,-0.473000,30.37
0.651299,0.528000,-0.232000,-0.817000,-1.908000,3.405000,-0.550000,30.32
0.652069,0.528000,-0.230000,-0.816000,-1.756000,2.931000,-0.351000,30.32
0.653266,0.526000,-0.224000,-0.826000,-1.420000,2.809000,-0.137000,30.32
0.654005,0.534000,-0.225000,-0.826000,-1.267000,2.519000,0.015000,30.27
0.656424,0.528000,-0.228000,-0.826000,-0.947000,2.321000,0.229000,30.27
0.657061,0.522000,-0.228000,-0.815000,-0.412000,2.565000,0.229000,30.41
0.657566,0.520000,-0.234000,-0.813000,-0.458000,2.305000,0.046000,30.32
0.660392,0.526000,-0.233000,-0.818000,-0.412000,2.534000,0.061000,30.37
0.660994,0.521000,-0.228000,-0.825000,-0.611000,2.550000,0.183000,30.27
0.661455,0.522000,-0.232000,-0.824000,-0.397000,2.748000,0.397000,30.37
0.661911,0.525000,-0.233000,-0.824000,-0.748000,2.885000,0.321000,30.32
0.662980,0.531000,-0.232000,-0.816000,-0.611000,2.916000,0.443000,30.41
0.665855,0.527000,-0.229000,-0.829000,-0.565000,2.733000,0.366000,30.27
0.666375,0.533000,-0.237000,-0.817000,2.321000,-2.687000,0.366000,30.27
0.666841,0.524000,-0.246000,-0.829000,0.412000,-0.290000,0.214000,30.22
0.667301,0.514000,-0.238000,-0.835000,-1.420000,1.359000,0.168000,30.32
0.667868,0.521000,-0.243000,-0.816000,-1.618000,1.924000,0.229000,30.32
0.668494,0.518000,-0.244000,-0.821000,-1.099000,1.557000,-0.260000,30.37
0.668991,0.520000,-0.246000,-0.823000,-1.084000,1.420000,-0.366000,30.27
0.669502,0.521000,-0.235000,-0.821000,-1.206000,1.420000,-0.504000,30.41
0.670868,0.525000,-0.241000,-0.818000,-1.802000,1.924000,-0.443000,30.32
0.671669,0.520000,-0.237000,-0.812000,-1.924000,2.015000,-0.214000,30.27
0.672155,0.518000,-0.235000,-0.823000,-1.618000,1.618000,-0.412000,30.27
0.672612,0.516000,-0.240000,-0.825000,-1.374000,1.328000,-0.321000,30.22
0.673256,0.516000,-0.237000,-0.825000,-1.466000,1.573000,-0.260000,30.32
0.673753,0.517000,-0.236000,-0.813000,-2.061000,1.802000,-0.229000,30.32
0.674218,0.516000,-0.244000,-0.812000,-2.489000,1.939000,-0.550000,30.37
0.674669,0.520000,-0.240000,-0.818000,-2.550000,2.153000,-0.824000,30.37
0.675117,0.516000,-0.241000,-0.822000,-2.870000,1.908000,-1.176000,30.22
0.675559,0.521000,-0.248000,-0.820000,-3.191000,1.893000,-1.344000,30.22
0.676014,0.518000,-0.239000,-0.817000,-3.557000,1.939000,-1.496000,30.27
0.676462,0.509000,-0.236000,-0.820000,-3.374000,2.137000,-1.618000,30.27
0.676907,0.516000,-0.241000,-0.829000,-3.466000,1.878000,-2.076000,30.32
0.677353,0.517000,-0.238000,-0.819000,-3.481000,1.908000,-2.000000,30.32
0.677934,0.517000,-0.234000,-0.828000,-3.878000,2.229000,-2.183000,30.32
0.678548,0.519000,-0.240000,-0.816000,-4.214000,2.321000,-2.366000,30.37
0.679500,0.519000,-0.235000,-0.819000,-4.779000,2.687000,-2.550000,30.32
0.679979,0.516000,-0.238000,-0.816000,-4.916000,2.809000,-2.672000,30.32
0.680490,0.521000,-0.243000,-0.829000,-4.870000,2.321000,-2.763000,30.32
0.680985,0.518000,-0.231000,-0.815000,-4.672000,2.229000,-3.084000,30.27
0.681414,0.514000,-0.227000,-0.820000,-4.748000,2.275000,-2.748000,30.18
0.681860,0.515000,-0.227000,-0.829000,-4.351000,2.427000,-2.641000,30.32
0.682286,0.524000,-0.232000,-0.816000,-4.183000,1.985000,-2.504000,30.41
0.682708,0.517000,-0.230000,-0.822000,-4.412000,2.427000,-2.748000,30.32
0.683140,0.521000,-0.226000,-0.832000,-4.489000,2.763000,-2.489000,30.27
0.683565,0.521000,-0.228000,-0.832000,-4.107000,2.351000,-2.412000,30.37
0.684006,0.516000,-0.222000,-0.821000,-4.092000,2.382000,-2.198000,30.32
0.684466,0.518000,-0.227000,-0.835000,-4.183000,2.427000,-2.000000,30.32
0.684941,0.515000,-0.216000,-0.827000,-3.710000,2.229000,-1.756000,30.18
0.685398,0.520000,-0.221000,-0.824000,-3.725000,2.504000,-1.679000,30.27
0.685841,0.518000,-0.224000,-0.828000,-3.740000,2.794000,-1.695000,30.37
0.686291,0.517000,-0.224000,-0.838000,-3.374000,2.947000,-1.527000,30.41
0.686737,0.518000,-0.225000,-0.832000,-3.008000,2.824000,-1.527000,30.32
0.687354,0.513000,-0.221000,-0.821000,-3.008000,2.977000,-1.389000,30.37
0.687850,0.511000,-0.222000,-0.828000,-2.580000,2.748000,-1.466000,30.27
0.688311,0.514000,-0.223000,-0.827000,-2.458000,2.901000,-1.344000,30.32
0.688763,0.518000,-0.227000,-0.828000,-2.809000,3.206000,-1.389000,30.32
0.689197,0.520000,-0.221000,-0.820000,-3.069000,3.511000,-1.282000,30.32
0.689621,0.515000,-0.229000,-0.827000,-3.084000,3.267000,-1.405000,30.37
0.690063,0.510000,-0.230000,-0.823000,-3.328000,3.206000,-1.450000,30.27
0.690554,0.519000,-0.231000,-0.821000,-3.344000,3.252000,-1.511000,30.32
0.691077,0.526000,-0.226000,-0.828000,-3.145000,3.145000,-1.481000,30.22
0.691520,0.519000,-0.227000,-0.830000,-3.420000,2.901000,-1.725000,30.27
0.691962,0.519000,-0.227000,-0.825000,-3.511000,2.824000,-1.924000,30.27
0.692395,0.513000,-0.226000,-0.833000,-3.511000,2.519000,-1.878000,30.27
0.692829,0.522000,-0.224000,-0.831000,-3.634000,2.366000,-1.893000,30.32
0.693260,0.514000,-0.221000,-0.833000,-3.634000,2.656000,-1.634000,30.41
0.693694,0.519000,-0.219000,-0.836000,-3.420000,2.305000,-1.573000,30.37
0.694131,0.525000,-0.219000,-0.839000,-3.634000,2.153000,-1.328000,30.27
0.694559,0.521000,-0.213000,-0.826000,-3.206000,2.290000,-1.160000,30.32
0.695106,0.512000,-0.213000,-0.831000,-3.069000,2.214000,-1.038000,30.22
0.695582,0.522000,-0.221000,-0.827000,-2.885000,2.107000,-0.885000,30.22
0.696026,0.513000,-0.216000,-0.816000,-3.237000,2.336000,-1.038000,30.27
0.696454,0.510000,-0.227000,-0.826000,-3.221000,2.321000,-1.115000,30.37
0.696884,0.515000,-0.225000,-0.826000,-3.053000,2.244000,-1.481000,30.32
0.697301,0.513000,-0.221000,-0.828000,-3.664000,2.656000,-1.664000,30.32
0.697714,0.509000,-0.224000,-0.820000,-3.924000,2.962000,-1.557000,30.27
0.698124,0.509000,-0.223000,-0.829000,-3.817000,3.298000,-1.908000,30.27
0.698541,0.507000,-0.219000,-0.822000,-4.092000,3.450000,-1.985000,30.27
0.698956,0.520000,-0.220000,-0.835000,-4.122000,3.679000,-2.000000,30.22
0.699370,0.518000,-0.214000,-0.835000,-3.527000,3.420000,-1.847000,30.41
0.699788,0.512000,-0.219000,-0.837000,-3.282000,3.450000,-1.786000,30.27
0.700201,0.515000,-0.215000,-0.833000,-3.634000,2.931000,-2.122000,30.32
0.700727,0.518000,-0.217000,-0.837000,-3.588000,3.298000,-2.275000,30.41
0.701288,0.518000,-0.225000,-0.830000,-3.634000,3.069000,-2.321000,30.41
0.701723,0.516000,-0.216000,-0.823000,-4.275000,3.069000,-2.458000,30.32
0.702162,0.521000,-0.221000,-0.825000,-4.595000,3.237000,-2.443000,30.37
0.702594,0.519000,-0.223000,-0.830000,-4.473000,2.840000,-2.794000,30.32
0.703077,0.507000,-0.221000,-0.827000,-4.901000,3.038000,-3.206000,30.32
0.703548,0.521000,-0.218000,-0.823000,-4.794000,2.763000,-3.313000,30.32
0.704001,0.514000,-0.222000,-0.823000,-4.947000,2.519000,-3.420000,30.27
0.704447,0.520000,-0.216000,-0.828000,-5.679000,2.382000,-3.603000,30.18
0.704876,0.517000,-0.220000,-0.828000,-6.000000,2.550000,-3.664000,30.32
0.705298,0.520000,-0.219000,-0.815000,-6.443000,1.817000,-3.908000,30.32
0.705723,0.524000,-0.215000,-0.831000,-6.977000,1.634000,-3.756000,30.32
0.706154,0.528000,-0.208000,-0.827000,-7.099000,0.794000,-4.031000,30.37
0.706583,0.532000,-0.199000,-0.832000,-7.344000,-0.046000,-3.954000,30.37
0.707013,0.534000,-0.200000,-0.829000,-7.588000,-0.366000,-3.878000,30.32
0.707438,0.527000,-0.200000,-0.832000,-7.649000,-1.023000,-3.786000,30.32
0.707859,0.525000,-0.200000,-0.838000,-7.618000,-1.832000,-3.359000,30.37
0.708283,0.513000,-0.201000,-0.842000,-7.847000,-1.695000,-3.099000,30.27
0.708706,0.494000,-0.196000,-0.823000,-7.405000,-1.298000,-3.237000,30.32
0.709123,0.489000,-0.199000,-0.833000,-6.916000,-0.137000,-3.435000,30.41
0.709538,0.499000,-0.198000,-0.846000,-7.038000,0.397000,-3.847000,30.32
0.709967,0.510000,-0.200000,-0.837000,-6.885000,1.084000,-4.153000,30.27
0.710405,0.517000,-0.193000,-0.830000,-7.115000,1.588000,-4.031000,30.27
0.711046,0.520000,-0.194000,-0.834000,-6.916000,1.481000,-3.863000,30.32
0.711571,0.514000,-0.193000,-0.844000,-6.519000,1.481000,-3.573000,30.32
0.712250,0.518000,-0.179000,-0.838000,-6.092000,1.756000,-3.237000,30.37
0.712862,0.521000,-0.186000,-0.843000,-5.679000,1.710000,-3.160000,30.27
0.713337,0.522000,-0.186000,-0.846000,-5.603000,1.603000,-2.580000,30.32
0.713809,0.511000,-0.189000,-0.842000,-4.718000,1.573000,-2.336000,30.22
0.714270,0.500000,-0.195000,-0.835000,-4.229000,1.618000,-2.305000,30.32
0.714765,0.503000,-0.191000,-0.840000,-4.015000,1.924000,-2.534000,30.37
0.715253,0.506000,-0.188000,-0.838000,-4.351000,2.565000,-2.809000,30.27
0.715696,0.506000,-0.198000,-0.838000,-4.702000,3.145000,-3.008000,30.32
0.716124,0.512000,-0.194000,-0.838000,-4.870000,3.450000,-2.855000,30.32
0.716554,0.518000,-0.185000,-0.830000,-5.038000,3.237000,-2.962000,30.27
0.716987,0.521000,-0.185000,-0.840000,-4.962000,3.023000,-3.023000,30.27
0.717415,0.514000,-0.182000,-0.840000,-4.947000,2.672000,-2.931000,30.27
0.717854,0.515000,-0.181000,-0.835000,-4.595000,2.473000,-2.519000,30.22
0.718284,0.520000,-0.178000,-0.842000,-4.366000,2.351000,-2.382000,30.22
0.718704,0.514000,-0.184000,-0.844000,-3.924000,2.076000,-2.153000,30.27
0.719121,0.516000,-0.178000,-0.837000,-3.679000,1.878000,-1.863000,30.32
0.719538,0.510000,-0.178000,-0.836000,-3.206000,2.015000,-1.908000,30.32
0.720007,0.515000,-0.175000,-0.837000,-3.023000,1.985000,-1.893000,30.41
0.720558,0.512000,-0.182000,-0.842000,-2.824000,1.908000,-1.771000,30.37
0.721213,0.510000,-0.185000,-0.848000,-2.855000,2.519000,-1.573000,30.37
0.721669,0.514000,-0.179000,-0.834000,-2.534000,2.504000,-1.359000,30.32
0.722104,0.515000,-0.178000,-0.844000,-2.366000,2.672000,-1.435000,30.32
0.722541,0.515000,-0.179000,-0.849000,-2.611000,2.733000,-1.618000,30.22
0.722958,0.514000,-0.179000,-0.837000,-2.473000,2.824000,-1.435000,30.37
0.723376,0.519000,-0.177000,-0.842000,-2.092000,2.565000,-1.038000,30.27
0.723787,0.515000,-0.173000,-0.840000,-1.740000,2.351000,-0.901000,30.22
0.724201,0.513000,-0.180000,-0.843000,-1.252000,2.519000,-0.550000,30.32
0.724615,0.513000,-0.173000,-0.841000,-0.916000,2.718000,-0.443000,30.27
0.725042,0.515000,-0.177000,-0.843000,-0.702000,2.733000,-0.336000,30.27
0.725452,0.505000,-0.181000,-0.833000,-0.290000,2.718000,-0.214000,30.27
0.725864,0.511000,-0.181000,-0.833000,-0.366000,2.947000,-0.122000,30.22
0.726281,0.506000,-0.185000,-0.839000,-0.305000,3.038000,-0.137000,30.32
0.726707,0.510000,-0.189000,-0.840000,-0.565000,3.115000,-0.275000,30.27
0.727125,0.519000,-0.191000,-0.841000,-0.977000,3.191000,-0.305000,30.27
0.727570,0.510000,-0.193000,-0.830000,-1.191000,3.405000,-0.580000,30.32
0.728109,0.512000,-0.190000,-0.843000,-1.725000,3.023000,-0.687000,30.22
0.728571,0.513000,-0.191000,-0.847000,-1.664000,2.641000,-0.748000,30.32
0.729010,0.517000,-0.190000,-0.845000,-1.786000,2.641000,-0.779000,30.27
0.729445,0.510000,-0.183000,-0.846000,-2.183000,2.489000,-0.977000,30.27
0.729884,0.517000,-0.192000,-0.844000,-2.290000,2.260000,-0.809000,30.32
0.730321,0.510000,-0.191000,-0.846000,-2.412000,2.168000,-0.977000,30.41
0.730849,0.509000,-0.180000,-0.841000,-2.412000,2.366000,-0.870000,30.37
0.731461,0.508000,-0.183000,-0.837000,-2.458000,2.611000,-0.840000,30.37
0.731917,0.510000,-0.197000,-0.835000,-2.672000,2.763000,-1.313000,30.32
0.732355,0.510000,-0.183000,-0.833000,-3.084000,2.992000,-1.282000,30.41
0.732779,0.511000,-0.190000,-0.849000,-2.947000,2.809000,-1.710000,30.32
0.733217,0.507000,-0.187000,-0.841000,-2.885000,2.855000,-1.832000,30.37
0.733651,0.517000,-0.188000,-0.848000,-3.069000,2.641000,-2.092000,30.27
0.734077,0.512000,-0.184000,-0.842000,-2.702000,2.565000,-2.092000,30.32
0.734499,0.511000,-0.175000,-0.842000,-2.473000,2.611000,-2.137000,30.22
0.734990,0.513000,-0.174000,-0.841000,-2.763000,2.702000,-2.061000,30.37
0.735443,0.510000,-0.185000,-0.841000,-3.038000,3.053000,-1.847000,30.18
0.735870,0.518000,-0.186000,-0.842000,-3.191000,3.069000,-1.985000,30.32
0.736300,0.517000,-0.182000,-0.851000,-3.008000,3.008000,-1.786000,30.32
0.736734,0.510000,-0.180000,-0.847000,-2.824000,2.992000,-1.847000,30.32
0.737172,0.509000,-0.177000,-0.838000,-2.443000,2.763000,-1.878000,30.27
0.737608,0.514000,-0.179000,-0.847000,-2.229000,2.473000,-1.557000,30.32
0.738088,0.516000,-0.182000,-0.844000,-2.015000,2.198000,-1.496000,30.22
0.738524,0.512000,-0.186000,-0.840000,-2.168000,2.489000,-1.405000,30.22
0.738956,0.509000,-0.176000,-0.847000,-3.985000,4.748000,-1.267000,30.27
0.739365,0.516000,-0.180000,-0.847000,-1.878000,2.412000,-1.435000,30.27
0.739789,0.511000,-0.181000,-0.839000,-1.832000,2.931000,-1.481000,30.22
0.740201,0.507000,-0.174000,-0.837000,-2.351000,2.870000,-1.130000,30.32
0.740611,0.516000,-0.173000,-0.832000,-2.229000,2.870000,-1.237000,30.22
0.741114,0.517000,-0.173000,-0.838000,-2.534000,3.115000,-1.099000,30.27
0.741654,0.513000,-0.181000,-0.843000,-2.153000,2.519000,-0.870000,30.27
0.742080,0.517000,-0.179000,-0.844000,-2.076000,2.321000,-0.809000,30.32
0.742510,0.508000,-0.179000,-0.842000,-2.031000,2.336000,-0.427000,30.32
0.742942,0.515000,-0.173000,-0.845000,-1.954000,2.366000,-0.550000,30.27
0.743372,0.520000,-0.182000,-0.835000,-1.893000,2.595000,-0.321000,30.27
0.743800,0.518000,-0.179000,-0.842000,-1.649000,2.443000,-0.153000,30.37
0.744273,0.514000,-0.180000,-0.841000,-1.511000,2.641000,-0.076000,30.32
0.744806,0.511000,-0.176000,-0.837000,-1.160000,2.443000,-0.046000,30.32
0.745326,0.511000,-0.174000,-0.839000,-1.115000,2.733000,0.183000,30.37
0.745928,0.506000,-0.180000,-0.845000,-1.038000,2.977000,0.214000,30.37
0.746531,0.509000,-0.177000,-0.850000,-0.580000,2.641000,0.443000,30.32
0.747022,0.506000,-0.175000,-0.848000,-0.076000,2.656000,0.626000,30.22
0.747472,0.505000,-0.180000,-0.832000,0.076000,2.824000,0.504000,30.37
0.747906,0.508000,-0.182000,-0.838000,0.366000,3.008000,0.412000,30.37
0.748334,0.510000,-0.182000,-0.840000,0.137000,3.099000,0.321000,30.27
0.748752,0.514000,-0.182000,-0.842000,0.031000,3.481000,0.275000,30.32
0.749179,0.504000,-0.188000,-0.844000,0.076000,3.420000,0.153000,30.32
0.749599,0.509000,-0.191000,-0.846000,-0.275000,3.756000,0.000000,30.37
0.750076,0.507000,-0.191000,-0.838000,-0.183000,3.847000,-0.229000,30.27
0.750538,0.505000,-0.187000,-0.844000,-0.458000,3.847000,-0.412000,30.22
0.751008,0.507000,-0.190000,-0.838000,-0.855000,4.015000,-0.534000,30.32
0.751491,0.510000,-0.192000,-0.834000,-0.962000,4.046000,-0.977000,30.37
0.751927,0.509000,-0.197000,-0.835000,-1.511000,4.443000,-1.496000,30.37
0.752384,0.503000,-0.193000,-0.842000,-1.466000,4.565000,-1.832000,30.37
0.752833,0.504000,-0.192000,-0.829000,-1.924000,4.473000,-2.000000,30.32
0.753330,0.512000,-0.191000,-0.835000,-2.748000,4.794000,-2.519000,30.22
0.753821,0.508000,-0.196000,-0.833000,-3.160000,4.870000,-2.824000,30.27
0.754262,0.508000,-0.196000,-0.842000,-4.000000,5.511000,-2.580000,30.32
0.754787,0.516000,-0.180000,-0.846000,-4.366000,5.130000,-2.840000,30.22
0.755319,0.510000,-0.180000,-0.835000,-3.466000,4.718000,-2.580000,30.22
0.755769,0.510000,-0.179000,-0.847000,-3.191000,4.763000,-2.504000,30.32
0.756220,0.508000,-0.170000,-0.844000,-3.053000,4.931000,-2.519000,30.37
0.756653,0.520000,-0.172000,-0.835000,-2.855000,4.901000,-2.321000,30.32
0.757088,0.519000,-0.176000,-0.839000,-2.840000,4.992000,-2.122000,30.32
0.757515,0.513000,-0.176000,-0.826000,-2.702000,5.221000,-1.954000,30.32
0.757938,0.517000,-0.181000,-0.840000,-0.443000,1.817000,-2.000000,30.37
0.758366,0.517000,-0.180000,-0.827000,-1.969000,4.611000,-1.679000,30.27
0.758812,0.523000,-0.179000,-0.838000,-1.466000,4.672000,-1.832000,30.32
0.759258,0.523000,-0.181000,-0.841000,-0.641000,4.153000,-1.832000,30.32
0.759759,0.523000,-0.178000,-0.844000,-0.611000,3.740000,-1.481000,30.32
0.760227,0.522000,-0.181000,-0.842000,-0.626000,3.542000,-1.344000,30.27
0.760653,0.518000,-0.177000,-0.843000,-1.206000,4.168000,-1.359000,30.27
0.761118,0.518000,-0.181000,-0.830000,-1.191000,3.771000,-1.191000,30.32
0.761677,0.524000,-0.181000,-0.841000,-1.573000,4.015000,-0.962000,30.32
0.762126,0.519000,-0.181000,-0.838000,-1.344000,3.710000,-0.992000,30.37
0.762637,0.518000,-0.175000,-0.840000,-1.252000,3.588000,-0.763000,30.27
0.763071,0.520000,-0.178000,-0.838000,-1.374000,3.527000,-0.626000,30.22
0.763492,0.526000,-0.180000,-0.838000,-1.038000,3.160000,-0.458000,30.32
0.763907,0.525000,-0.182000,-0.843000,-1.115000,3.282000,-0.550000,30.37
0.764358,0.516000,-0.180000,-0.836000,-1.115000,3.298000,-0.443000,30.37
0.764786,0.514000,-0.177000,-0.837000,-1.053000,2.962000,-0.168000,30.27
0.765205,0.521000,-0.174000,-0.838000,-0.962000,3.008000,0.260000,30.32
0.765620,0.520000,-0.170000,-0.834000,-0.351000,2.336000,0.611000,30.32
0.766040,0.518000,-0.174000,-0.840000,-0.351000,2.366000,0.794000,30.37
0.766453,0.529000,-0.175000,-0.847000,1.084000,1.328000,1.176000,30.37
0.766871,0.513000,-0.174000,-0.842000,1.099000,2.122000,1.557000,30.22
0.767283,0.507000,-0.179000,-0.843000,0.779000,2.458000,1.573000,30.22
0.767690,0.518000,-0.183000,-0.845000,1.969000,1.802000,2.046000,30.37
0.768106,0.514000,-0.175000,-0.850000,2.611000,1.878000,2.260000,30.27
0.768522,0.524000,-0.176000,-0.848000,2.855000,2.092000,2.565000,30.32
0.768935,0.511000,-0.188000,-0.840000,3.053000,2.107000,2.779000,30.32
0.769347,0.513000,-0.187000,-0.836000,2.672000,2.763000,2.824000,30.41
0.769767,0.514000,-0.191000,-0.836000,2.962000,3.115000,2.794000,30.37
0.770183,0.509000,-0.196000,-0.831000,3.176000,3.252000,2.702000,30.32
0.770616,0.508000,-0.195000,-0.836000,3.053000,3.176000,2.504000,30.32
0.771106,0.516000,-0.188000,-0.836000,2.901000,3.267000,2.336000,30.32
0.771550,0.524000,-0.192000,-0.833000,2.840000,2.992000,2.473000,30.37
0.771964,0.521000,-0.198000,-0.833000,2.427000,2.916000,2.214000,30.27
0.772383,0.519000,-0.199000,-0.839000,1.725000,2.824000,1.771000,30.32
0.772799,0.520000,-0.202000,-0.829000,1.542000,2.458000,1.573000,30.22
0.773215,0.514000,-0.211000,-0.834000,0.962000,2.718000,1.252000,30.32
0.773623,0.506000,-0.208000,-0.824000,0.382000,2.824000,1.053000,30.37
0.774038,0.511000,-0.205000,-0.840000,0.580000,2.351000,0.824000,30.27
0.774458,0.509000,-0.206000,-0.835000,-0.015000,2.718000,0.443000,30.22
0.774883,0.512000,-0.203000,-0.851000,-0.076000,3.008000,0.305000,30.22
0.775302,0.517000,-0.198000,-0.838000,-0.153000,3.038000,0.168000,30.32
0.775719,0.514000,-0.199000,-0.837000,-0.443000,3.389000,0.412000,30.27
0.776143,0.505000,-0.198000,-0.819000,-1.511000,4.977000,0.366000,30.37
0.776557,0.510000,-0.198000,-0.834000,-0.519000,2.794000,0.137000,30.22
0.776968,0.513000,-0.201000,-0.839000,-0.565000,3.069000,0.153000,30.32
0.777399,0.513000,-0.203000,-0.830000,-0.595000,2.718000,-0.092000,30.32
0.777834,0.519000,-0.205000,-0.838000,-0.779000,2.779000,-0.107000,30.37
0.778257,0.511000,-0.202000,-0.828000,-0.824000,2.870000,-0.366000,30.27
0.778684,0.516000,-0.206000,-0.841000,-1.481000,3.267000,-0.565000,30.32
0.779172,0.510000,-0.206000,-0.841000,-2.290000,3.511000,-0.947000,30.32
0.779744,0.517000,-0.206000,-0.831000,-1.985000,3.145000,-1.450000,30.27
0.780359,0.516000,-0.197000,-0.837000,-2.519000,3.237000,-1.344000,30.27
0.780804,0.518000,-0.194000,-0.832000,-2.779000,2.855000,-1.008000,30.27
0.781246,0.525000,-0.191000,-0.839000,-2.183000,3.099000,-0.626000,30.22
0.781716,0.508000,-0.181000,-0.843000,-1.511000,2.763000,-0.412000,30.32
0.782185,0.507000,-0.188000,-0.829000,-0.153000,3.023000,-0.031000,30.27
0.782615,0.498000,-0.186000,-0.833000,0.748000,3.481000,0.275000,30.37
0.783038,0.503000,-0.185000,-0.839000,1.206000,4.198000,0.198000,30.27
0.783471,0.513000,-0.190000,-0.840000,1.328000,4.153000,0.809000,30.32
0.783898,0.517000,-0.192000,-0.836000,1.344000,4.397000,0.977000,30.32
0.784351,0.518000,-0.197000,-0.832000,1.893000,3.985000,1.115000,30.37
0.784872,0.514000,-0.205000,-0.835000,2.260000,3.954000,1.420000,30.37
0.785379,0.512000,-0.208000,-0.828000,1.802000,4.107000,0.763000,30.22
0.785823,0.501000,-0.219000,-0.832000,1.115000,4.229000,0.641000,30.22
0.786251,0.508000,-0.223000,-0.820000,0.382000,4.351000,-0.092000,30.22
0.786722,0.511000,-0.219000,-0.827000,-0.366000,4.290000,-0.580000,30.27
0.787194,0.517000,-0.222000,-0.828000,-1.160000,4.305000,-1.053000,30.37
0.787637,0.516000,-0.219000,-0.831000,-1.817000,4.031000,-1.618000,30.32
0.788065,0.516000,-0.213000,-0.822000,-2.870000,3.908000,-1.954000,30.22
0.788511,0.517000,-0.213000,-0.831000,-3.359000,3.481000,-2.076000,30.27
0.788944,0.516000,-0.207000,-0.832000,-3.710000,3.832000,-2.550000,30.37
0.789395,0.510000,-0.215000,-0.830000,-4.031000,3.832000,-2.672000,30.27
0.789842,0.512000,-0.205000,-0.833000,-4.321000,3.725000,-3.084000,30.22
0.790288,0.510000,-0.202000,-0.828000,-4.290000,3.588000,-3.359000,30.22
0.790724,0.511000,-0.205000,-0.835000,-4.550000,3.786000,-3.496000,30.27
0.791156,0.523000,-0.201000,-0.832000,-4.198000,3.679000,-3.603000,30.27
0.791578,0.525000,-0.198000,-0.832000,-3.847000,3.466000,-3.573000,30.22
0.792004,0.517000,-0.191000,-0.836000,-3.802000,3.344000,-3.450000,30.32
0.792445,0.513000,-0.200000,-0.828000,-3.740000,3.267000,-3.374000,30.22
0.792874,0.524000,-0.198000,-0.833000,-3.756000,3.282000,-3.573000,30.37
0.793307,0.512000,-0.197000,-0.838000,-3.588000,3.511000,-3.679000,30.27
0.793743,0.516000,-0.197000,-0.833000,-3.878000,3.771000,-3.603000,30.32
0.794166,0.518000,-0.197000,-0.841000,-3.954000,3.908000,-3.664000,30.22
0.794589,0.514000,-0.202000,-0.834000,-3.664000,3.985000,-3.679000,30.27
0.795181,0.516000,-0.190000,-0.835000,-3.802000,4.275000,-3.634000,30.27
0.795638,0.518000,-0.182000,-0.835000,-3.588000,4.015000,-3.557000,30.27
0.796065,0.524000,-0.197000,-0.830000,-3.710000,4.351000,-3.206000,30.22
0.796502,0.525000,-0.193000,-0.839000,-3.053000,3.725000,-3.069000,30.22
0.796936,0.526000,-0.190000,-0.842000,-3.252000,3.802000,-2.763000,30.27
0.797385,0.522000,-0.190000,-0.827000,-3.328000,3.817000,-2.656000,30.37
0.797828,0.520000,-0.193000,-0.832000,-3.008000,3.924000,-2.672000,30.32
0.798254,0.523000,-0.185000,-0.831000,-3.069000,3.969000,-2.412000,30.32
0.798673,0.516000,-0.194000,-0.837000,-2.870000,4.046000,-2.275000,30.22
0.799103,0.520000,-0.191000,-0.831000,-2.855000,3.847000,-2.321000,30.27
0.799532,0.527000,-0.190000,-0.831000,-2.626000,3.740000,-2.092000,30.32
0.799965,0.519000,-0.190000,-0.836000,-2.534000,3.466000,-2.015000,30.22
0.800400,0.523000,-0.192000,-0.837000,-2.397000,3.603000,-1.771000,30.32
0.800826,0.525000,-0.192000,-0.835000,-2.779000,3.298000,-1.771000,30.22
0.801252,0.524000,-0.195000,-0.836000,-2.779000,2.794000,-1.756000,30.27
0.801675,0.529000,-0.189000,-0.832000,-2.458000,2.366000,-1.511000,30.32
0.802097,0.517000,-0.201000,-0.828000,-3.573000,3.191000,-1.511000,30.22
0.802524,0.523000,-0.197000,-0.828000,-3.985000,3.344000,-1.695000,30.22
0.802968,0.521000,-0.192000,-0.827000,-2.962000,1.588000,-1.725000,30.27
0.803453,0.523000,-0.193000,-0.831000,-3.176000,1.573000,-1.679000,30.27
0.803899,0.526000,-0.195000,-0.830000,-3.771000,1.817000,-1.969000,30.32
0.804331,0.526000,-0.198000,-0.838000,-4.336000,1.542000,-2.137000,30.32
0.804764,0.528000,-0.194000,-0.834000,-4.656000,1.679000,-2.061000,30.32
0.805189,0.523000,-0.194000,-0.824000,-4.824000,1.542000,-2.260000,30.37
0.805603,0.513000,-0.189000,-0.828000,-4.336000,1.206000,-2.290000,30.27
0.806037,0.519000,-0.188000,-0.837000,-4.412000,1.573000,-2.214000,30.32
0.806462,0.512000,-0.182000,-0.832000,-4.214000,1.817000,-2.183000,30.32
0.806889,0.513000,-0.182000,-0.830000,-3.985000,1.786000,-2.336000,30.32
0.807304,0.515000,-0.182000,-0.837000,-3.863000,1.985000,-2.183000,30.37
0.807736,0.513000,-0.180000,-0.826000,-3.405000,2.244000,-2.183000,30.37
0.808160,0.513000,-0.176000,-0.840000,-3.206000,2.718000,-2.122000,30.32
0.808585,0.515000,-0.181000,-0.835000,-3.206000,3.344000,-2.137000,30.32
0.808999,0.519000,-0.180000,-0.837000,-3.130000,3.298000,-2.153000,30.32
0.809424,0.519000,-0.180000,-0.837000,-3.038000,3.191000,-1.725000,30.37
0.809851,0.526000,-0.184000,-0.846000,-2.962000,2.870000,-1.527000,30.27
0.810283,0.523000,-0.186000,-0.837000,-2.534000,2.595000,-1.481000,30.32
0.810711,0.525000,-0.186000,-0.839000,-3.130000,2.595000,-1.267000,30.22
0.811133,0.530000,-0.183000,-0.826000,-2.305000,1.573000,-0.840000,30.27
0.811563,0.522000,-0.177000,-0.835000,-2.916000,1.466000,-0.931000,30.37
0.812000,0.518000,-0.170000,-0.830000,-1.573000,0.916000,-0.702000,30.27
0.812431,0.517000,-0.175000,-0.837000,-1.756000,1.649000,-0.397000,30.22
0.812870,0.522000,-0.175000,-0.837000,-1.679000,1.786000,-0.168000,30.22
0.813431,0.520000,-0.178000,-0.836000,-1.282000,1.771000,-0.015000,30.27
0.814064,0.518000,-0.184000,-0.835000,-1.267000,1.939000,0.153000,30.27
0.814501,0.522000,-0.180000,-0.842000,-0.992000,2.061000,0.336000,30.32
0.814989,0.516000,-0.177000,-0.837000,-0.718000,1.771000,0.687000,30.32
0.815452,0.515000,-0.175000,-0.839000,-0.504000,1.908000,0.718000,30.22
0.815875,0.519000,-0.181000,-0.830000,-0.366000,1.771000,0.794000,30.27
0.816304,0.523000,-0.175000,-0.840000,-0.321000,1.954000,1.389000,30.27
0.816726,0.527000,-0.185000,-0.845000,-0.305000,2.244000,1.527000,30.32
0.817145,0.523000,-0.183000,-0.839000,0.000000,2.214000,1.847000,30.32
0.817569,0.514000,-0.185000,-0.840000,0.275000,2.000000,1.817000,30.32
0.817985,0.512000,-0.188000,-0.840000,0.046000,2.137000,1.847000,30.37
0.818412,0.511000,-0.187000,-0.836000,-0.229000,2.748000,1.756000,30.27
0.818840,0.517000,-0.186000,-0.844000,4.000000,-7.328000,1.557000,30.32
0.819278,0.512000,-0.197000,-0.836000,2.672000,-2.595000,1.023000,30.22
0.819706,0.514000,-0.197000,-0.850000,-0.779000,1.603000,0.580000,30.27
0.820137,0.518000,-0.203000,-0.844000,0.092000,1.740000,0.198000,30.27
0.820592,0.518000,-0.203000,-0.833000,-0.687000,4.855000,-0.336000,30.32
0.821032,0.523000,-0.198000,-0.837000,0.137000,5.038000,-0.565000,30.22
0.821454,0.503000,-0.192000,-0.807000,-1.466000,4.122000,-0.519000,30.22
0.821886,0.529000,-0.189000,-0.844000,0.519000,1.786000,-0.611000,30.37
0.822314,0.512000,-0.191000,-0.832000,-1.481000,2.977000,-0.489000,30.27
0.822746,0.527000,-0.193000,-0.844000,-3.435000,3.969000,-0.397000,30.32
0.823289,0.511000,-0.188000,-0.827000,-2.321000,3.359000,-0.641000,30.32
0.823891,0.516000,-0.191000,-0.839000,-3.115000,2.916000,-0.427000,30.27
0.824339,0.514000,-0.194000,-0.839000,0.580000,-0.137000,-0.458000,30.27
0.824861,0.517000,-0.198000,-0.846000,-0.824000,1.786000,-0.580000,30.27
0.825355,0.508000,-0.194000,-0.838000,-1.374000,2.107000,-0.534000,30.32
0.825812,0.504000,-0.184000,-0.832000,-1.985000,2.382000,-0.916000,30.32
0.826257,0.515000,-0.189000,-0.824000,-1.740000,2.565000,-1.130000,30.27
0.826697,0.508000,-0.187000,-0.834000,-3.664000,4.046000,-1.115000,30.32
0.827135,0.512000,-0.195000,-0.834000,-3.298000,3.771000,-1.405000,30.32
0.827572,0.508000,-0.191000,-0.834000,-2.122000,2.885000,-1.740000,30.22
0.828050,0.518000,-0.192000,-0.845000,-1.985000,2.901000,-1.985000,30.32
0.828594,0.506000,-0.188000,-0.838000,-1.634000,2.794000,-1.863000,30.27
0.829183,0.502000,-0.193000,-0.839000,-4.412000,6.244000,-1.847000,30.22
0.829724,0.510000,-0.185000,-0.837000,-2.061000,4.641000,-2.260000,30.22
0.830197,0.516000,-0.188000,-0.837000,-2.580000,5.603000,-2.275000,30.13
0.830640,0.513000,-0.187000,-0.835000,-1.908000,6.351000,-2.382000,30.37
0.831100,0.518000,-0.180000,-0.852000,-1.344000,3.969000,-2.046000,30.37
0.831541,0.515000,-0.189000,-0.831000,-1.023000,5.099000,-2.015000,30.22
0.831990,0.509000,-0.184000,-0.833000,-2.092000,5.893000,-2.061000,30.32
0.832430,0.516000,-0.190000,-0.846000,-1.313000,4.611000,-2.031000,30.22
0.832860,0.512000,-0.194000,-0.827000,-0.305000,4.748000,-2.107000,30.27
0.833289,0.514000,-0.188000,-0.834000,-2.687000,6.336000,-1.634000,30.27
0.833718,0.524000,-0.178000,-0.837000,0.214000,2.458000,-1.832000,30.22
0.834149,0.536000,-0.188000,-0.834000,-1.603000,3.450000,-1.435000,30.32
0.834589,0.524000,-0.191000,-0.835000,0.153000,4.321000,-1.389000,30.22
0.835074,0.521000,-0.183000,-0.842000,-1.664000,5.374000,-1.237000,30.27
0.835523,0.523000,-0.179000,-0.842000,-1.725000,5.542000,-1.008000,30.27
0.835958,0.523000,-0.179000,-0.835000,-0.061000,3.344000,-0.824000,30.32
0.836434,0.511000,-0.190000,-0.838000,-2.153000,7.069000,-1.084000,30.32
0.836923,0.521000,-0.181000,-0.837000,0.137000,5.023000,-0.947000,30.27
0.837396,0.518000,-0.183000,-0.830000,-0.718000,6.107000,-1.008000,30.27
0.837835,0.525000,-0.181000,-0.839000,-1.145000,6.748000,-0.855000,30.27
0.838259,0.522000,-0.186000,-0.831000,-2.336000,6.504000,-0.702000,30.32
0.838683,0.524000,-0.190000,-0.823000,-2.641000,6.366000,-0.656000,30.32
0.839188,0.533000,-0.190000,-0.834000,-2.519000,5.939000,0.153000,30.37
0.839938,0.529000,-0.183000,-0.824000,-2.000000,5.130000,0.321000,30.37
0.840378,0.530000,-0.189000,-0.831000,0.214000,3.740000,0.473000,30.22
0.840782,0.526000,-0.184000,-0.818000,0.718000,3.435000,0.809000,30.32
0.841197,0.529000,-0.188000,-0.822000,-0.702000,4.107000,1.008000,30.22
0.841612,0.521000,-0.185000,-0.832000,-0.168000,2.809000,1.405000,30.27
0.842022,0.529000,-0.184000,-0.840000,0.702000,1.939000,1.695000,30.27
0.842421,0.524000,-0.191000,-0.827000,0.595000,2.260000,1.939000,30.22
0.842829,0.520000,-0.195000,-0.822000,0.992000,1.740000,1.695000,30.32
0.843244,0.525000,-0.193000,-0.830000,1.496000,1.130000,1.649000,30.18
0.843661,0.509000,-0.199000,-0.823000,-2.092000,4.336000,1.878000,30.27
0.844073,0.500000,-0.198000,-0.807000,-2.901000,5.817000,1.649000,30.22
0.844491,0.522000,-0.196000,-0.830000,8.183000,-4.290000,0.550000,30.32
0.844969,0.523000,-0.202000,-0.837000,-0.397000,1.863000,0.565000,30.32
0.845424,0.520000,-0.205000,-0.840000,-1.481000,2.779000,0.626000,30.18
0.845852,0.517000,-0.206000,-0.835000,-0.870000,1.359000,0.198000,30.37
0.846271,0.521000,-0.196000,-0.830000,-2.748000,0.244000,0.183000,30.32
0.846699,0.520000,-0.195000,-0.836000,0.733000,-2.092000,-0.305000,30.22
0.847125,0.512000,-0.199000,-0.826000,-1.832000,2.550000,-0.397000,30.27
0.847557,0.509000,-0.196000,-0.825000,-2.275000,2.947000,-0.519000,30.27
0.847983,0.510000,-0.197000,-0.827000,-2.855000,2.015000,-0.641000,30.37
0.848408,0.520000,-0.198000,-0.830000,-3.069000,1.191000,-0.687000,30.32
0.848828,0.515000,-0.202000,-0.826000,-3.466000,1.847000,-1.053000,30.32
0.849251,0.514000,-0.193000,-0.836000,-3.557000,1.496000,-0.763000,30.37
0.849789,0.519000,-0.194000,-0.833000,-3.206000,2.137000,-1.359000,30.27
0.850349,0.516000,-0.198000,-0.827000,-3.206000,2.137000,-1.466000,30.32
0.850790,0.520000,-0.197000,-0.829000,-2.626000,2.595000,-1.420000,30.32
0.851236,0.518000,-0.194000,-0.843000,-2.137000,3.099000,-1.389000,30.22
0.851671,0.520000,-0.186000,-0.837000,-1.710000,2.824000,-1.267000,30.37
0.852112,0.519000,-0.187000,-0.836000,-1.435000,2.947000,-0.962000,30.22
0.852538,0.493000,-0.188000,-0.843000,0.229000,4.550000,-1.176000,30.32
0.852959,0.514000,-0.189000,-0.825000,-0.550000,4.321000,-1.160000,30.22
0.853438,0.512000,-0.187000,-0.831000,-2.015000,4.305000,-0.870000,30.27
0.853905,0.520000,-0.192000,-0.833000,-0.977000,2.794000,-0.687000,30.27
0.854345,0.517000,-0.194000,-0.835000,-0.794000,3.496000,-0.733000,30.32
0.854776,0.521000,-0.197000,-0.845000,-1.344000,3.893000,-0.992000,30.22
0.855195,0.522000,-0.196000,-0.835000,-1.405000,3.756000,-0.763000,30.22
0.855613,0.524000,-0.195000,-0.832000,-1.939000,3.893000,-0.824000,30.27
0.856034,0.522000,-0.199000,-0.834000,-1.221000,3.084000,-1.053000,30.27
0.856445,0.518000,-0.193000,-0.827000,-0.977000,3.374000,-1.069000,30.22
0.856867,0.512000,-0.194000,-0.826000,-1.710000,4.076000,-0.962000,30.32
0.857290,0.524000,-0.197000,-0.841000,-1.710000,3.084000,-0.672000,30.22
0.857713,0.515000,-0.194000,-0.834000,-1.313000,2.931000,-0.504000,30.27
0.858132,0.513000,-0.197000,-0.819000,-0.901000,3.176000,-0.809000,30.18
0.858552,0.520000,-0.196000,-0.836000,-1.344000,3.328000,-0.489000,30.32
0.858974,0.521000,-0.203000,-0.843000,-2.595000,3.847000,-0.473000,30.32
0.859393,0.517000,-0.197000,-0.830000,-1.374000,2.870000,-0.641000,30.27
0.859938,0.514000,-0.204000,-0.827000,-1.740000,3.206000,-0.473000,30.18
0.860541,0.520000,-0.199000,-0.832000,-1.008000,2.183000,-0.687000,30.27
0.860992,0.519000,-0.203000,-0.829000,-1.740000,2.748000,-0.626000,30.22
0.861438,0.525000,-0.198000,-0.837000,-2.000000,2.656000,-0.656000,30.32
0.861965,0.526000,-0.205000,-0.830000,-3.130000,3.466000,-0.458000,30.27
0.862494,0.514000,-0.193000,-0.829000,-3.130000,3.664000,-0.626000,30.27
0.862934,0.518000,-0.199000,-0.834000,-2.733000,3.252000,-0.748000,30.22
0.863359,0.513000,-0.195000,-0.829000,-2.885000,3.511000,-0.656000,30.22
0.863774,0.518000,-0.196000,-0.835000,-2.733000,3.527000,-0.794000,30.22
0.864199,0.515000,-0.194000,-0.830000,-2.489000,3.756000,-0.855000,30.18
0.864624,0.517000,-0.192000,-0.832000,-2.244000,3.802000,-0.885000,30.27
0.865084,0.521000,-0.202000,-0.834000,-1.847000,3.740000,-0.855000,30.22
0.865500,0.520000,-0.196000,-0.836000,-1.252000,3.221000,-1.115000,30.22
0.865916,0.519000,-0.191000,-0.835000,-1.145000,3.344000,-0.977000,30.27
0.866344,0.527000,-0.193000,-0.831000,-1.359000,3.053000,-0.885000,30.27
0.866771,0.520000,-0.192000,-0.838000,-1.359000,3.115000,-0.824000,30.22
0.867193,0.515000,-0.196000,-0.836000,-1.191000,3.191000,-0.779000,30.22
0.867614,0.522000,-0.198000,-0.836000,-1.527000,3.130000,-0.763000,30.32
0.868036,0.518000,-0.194000,-0.838000,-1.374000,3.359000,-0.748000,30.37
0.868453,0.518000,-0.194000,-0.839000,-1.191000,3.405000,-0.565000,30.18
0.868876,0.519000,-0.194000,-0.833000,-1.282000,3.740000,-0.687000,30.22
0.869287,0.520000,-0.196000,-0.842000,-1.405000,3.802000,-0.611000,30.32
0.869857,0.525000,-0.197000,-0.828000,-1.420000,3.725000,-0.763000,30.27
0.870301,0.524000,-0.194000,-0.828000,-1.252000,3.954000,-0.672000,30.27
0.870742,0.522000,-0.196000,-0.828000,-1.221000,3.679000,-0.580000,30.27
0.871179,0.526000,-0.198000,-0.832000,-1.084000,3.618000,-0.809000,30.22
