# Gait Analysis Data - MPU6050 IMU
# Duration: 10 seconds
# Format: timestamp(s),ax(g),ay(g),az(g),gx(deg/s),gy(deg/s),gz(deg/s),temp(C)
# Note: Document sensor placement (ankle/wrist) separately
timestamp,ax,ay,az,gx,gy,gz,temp
0.001311,0.545000,-0.233000,-0.801000,-17.847000,35.099000,-20.870000,29.66
0.002719,0.496000,-0.234000,-0.827000,-17.771000,37.389000,-26.489000,29.66
0.003876,0.548000,-0.410000,-0.778000,-22.489000,43.542000,-30.412000,29.52
0.005197,0.551000,-0.308000,-0.801000,-19.969000,49.771000,-36.763000,29.71
0.006447,0.561000,-0.491000,-0.946000,-62.076000,66.824000,-34.977000,29.61
0.007539,0.707000,-0.271000,-0.900000,-35.954000,72.763000,-40.122000,29.66
0.008604,0.573000,-0.050000,-0.870000,-31.710000,99.695000,-37.053000,29.57
0.009691,0.600000,-0.108000,-0.838000,-35.084000,122.824000,-29.176000,29.61
0.010809,0.577000,0.007000,-0.845000,-36.489000,146.550000,-23.267000,29.61
0.011736,0.581000,0.031000,-0.821000,-25.878000,172.290000,-18.901000,29.66
0.012641,0.484000,0.023000,-0.809000,-18.305000,202.550000,-17.450000,29.66
0.013550,0.527000,-0.006000,-0.824000,-11.176000,230.168000,-19.725000,29.61
0.014444,0.535000,-0.057000,-0.847000,-7.008000,251.160000,-19.878000,29.71
0.015309,0.505000,-0.218000,-0.789000,-11.924000,270.672000,-28.076000,29.66
0.016091,0.559000,-0.218000,-0.768000,-15.313000,293.389000,-46.458000,29.66
0.016885,0.678000,-0.161000,-0.835000,-23.542000,308.901000,-63.099000,29.71
0.017676,0.786000,-0.312000,-0.774000,-43.573000,326.901000,-82.214000,29.57
0.018463,1.119000,-0.314000,-0.826000,-51.160000,346.382000,-95.863000,29.66
0.019288,1.228000,-0.380000,-1.051000,-50.733000,376.183000,-106.458000,29.66
0.020070,1.416000,-0.413000,-1.423000,-27.847000,410.000000,-104.687000,29.61
0.020853,1.899000,-0.541000,-1.568000,13.985000,398.565000,-97.206000,29.71
0.021628,2.246000,-0.257000,-1.210000,53.573000,366.977000,-96.519000,29.57
0.022421,2.050000,-0.146000,-1.317000,40.473000,347.695000,-104.733000,29.66
0.023153,2.048000,-0.258000,-1.718000,-1.038000,304.122000,-117.679000,29.52
0.023847,1.270000,-0.574000,-2.028000,-42.947000,252.595000,-123.969000,29.71
0.024931,0.274000,-1.272000,-2.125000,-71.466000,134.000000,-80.092000,29.66
0.026107,0.568000,-3.427000,-4.000000,-27.985000,18.137000,55.649000,29.66
0.028466,0.898000,-2.601000,-3.442000,-145.908000,-145.496000,66.672000,29.61
0.029852,-1.345000,-1.728000,-1.332000,-198.321000,-172.962000,71.481000,29.61
0.030897,-0.568000,-0.885000,-1.554000,-167.695000,-169.008000,79.206000,29.66
0.031555,-0.127000,-0.627000,-1.714000,-121.115000,-201.756000,82.061000,29.57
0.032148,-0.183000,-0.774000,-1.578000,-80.443000,-222.565000,78.595000,29.66
0.032725,0.002000,-0.832000,-1.525000,-77.282000,-258.473000,52.672000,29.61
0.033308,0.138000,-0.648000,-1.402000,-90.489000,-285.466000,13.603000,29.61
0.033887,0.313000,-0.314000,-1.327000,-80.641000,-305.863000,-26.809000,29.57
0.034465,0.504000,-0.183000,-1.293000,-38.168000,-321.924000,-52.962000,29.66
0.035038,0.785000,-0.229000,-1.192000,14.198000,-342.519000,-66.672000,29.71
0.035959,0.946000,-0.376000,-1.118000,57.328000,-359.878000,-70.015000,29.57
0.037138,0.908000,-0.595000,-0.855000,81.985000,-364.260000,-68.336000,29.57
0.038003,0.992000,-0.730000,-0.695000,96.351000,-352.061000,-58.580000,29.57
0.038885,1.086000,-0.768000,-0.625000,100.198000,-335.924000,-40.061000,29.61
0.039668,1.051000,-0.728000,-0.655000,111.664000,-314.427000,-18.336000,29.61
0.040276,1.169000,-0.659000,-0.783000,132.397000,-294.656000,9.695000,29.66
0.042120,1.268000,-0.620000,-0.865000,152.168000,-281.206000,37.756000,29.66
0.044615,1.319000,-0.677000,-0.865000,163.450000,-260.672000,61.053000,29.61
0.046045,1.478000,-0.777000,-0.957000,163.481000,-238.336000,84.748000,29.61
0.046832,1.579000,-0.678000,-1.017000,158.244000,-213.878000,116.061000,29.75
0.050498,1.618000,-0.491000,-1.029000,161.023000,-190.168000,152.595000,29.57
0.052541,1.759000,-0.270000,-1.129000,165.023000,-169.176000,187.542000,29.61
0.053403,2.001000,-0.069000,-1.186000,162.122000,-153.878000,213.496000,29.71
0.055164,2.199000,0.202000,-1.208000,151.130000,-148.992000,223.466000,29.57
0.055809,2.285000,0.416000,-1.142000,135.038000,-153.420000,213.695000,29.66
0.060103,2.424000,0.797000,-1.179000,124.794000,-169.252000,188.947000,29.61
0.060683,2.495000,1.073000,-1.055000,131.084000,-176.534000,159.969000,29.71
0.061153,2.589000,1.209000,-0.750000,151.115000,-187.496000,135.817000,29.57
0.061599,2.694000,1.081000,-0.372000,197.313000,-234.916000,107.725000,29.66
0.062049,2.654000,1.112000,0.168000,184.336000,-184.779000,89.679000,29.66
0.062482,2.591000,1.150000,0.447000,172.733000,-163.466000,69.603000,29.71
0.062905,2.591000,1.175000,0.623000,144.916000,-133.817000,51.252000,29.66
0.063347,2.530000,1.155000,0.699000,100.641000,-92.443000,34.885000,29.66
0.063781,2.490000,1.138000,0.635000,49.740000,-64.397000,18.580000,29.75
0.064202,2.766000,0.692000,1.032000,-78.550000,-19.542000,-3.313000,29.61
0.064625,2.648000,1.162000,1.200000,-194.305000,12.763000,-43.908000,29.61
0.065057,0.589000,1.647000,-0.187000,-176.168000,41.557000,-58.183000,29.75
0.065569,1.568000,-0.203000,-2.690000,-91.221000,57.557000,-23.847000,29.57
0.066059,-0.377000,-0.803000,-1.718000,-40.290000,-34.198000,-19.954000,29.61
0.066503,-1.159000,-0.578000,-0.375000,-72.305000,59.313000,-48.458000,29.61
0.067794,-0.091000,-0.233000,-0.517000,-79.221000,47.069000,-69.359000,29.66
0.068995,0.960000,0.247000,-1.385000,-47.328000,120.809000,-47.618000,29.66
0.069577,0.610000,0.578000,-1.396000,-28.870000,116.687000,-55.221000,29.61
0.070065,0.443000,0.411000,-1.407000,-12.458000,107.099000,-77.740000,29.61
0.070545,0.395000,-0.120000,-1.006000,-1.588000,114.107000,-85.954000,29.57
0.071606,0.390000,-0.523000,-0.710000,2.519000,128.809000,-77.420000,29.66
0.072179,0.486000,-0.537000,-0.846000,12.061000,134.214000,-67.191000,29.61
0.072661,0.605000,-0.356000,-0.925000,19.588000,130.046000,-66.382000,29.66
0.073129,1.107000,-0.550000,-1.225000,2.641000,109.237000,-71.328000,29.66
0.073606,1.062000,-0.548000,-1.052000,-10.076000,91.145000,-58.214000,29.66
0.074072,0.792000,-0.563000,-0.951000,-20.718000,84.748000,-48.931000,29.61
0.074529,0.736000,-0.554000,-0.938000,-30.336000,68.015000,-43.053000,29.61
0.074961,0.603000,-0.438000,-0.842000,-42.260000,57.298000,-41.817000,29.66
0.075396,0.500000,-0.416000,-0.792000,-54.061000,41.878000,-43.573000,29.66
0.075821,0.326000,-0.396000,-0.630000,-73.908000,35.588000,-50.702000,29.71
0.076253,0.252000,-0.406000,-0.601000,-99.924000,33.542000,-62.198000,29.71
0.076685,0.386000,-0.583000,-0.839000,-111.893000,39.191000,-68.794000,29.71
0.077137,0.792000,-0.443000,-1.241000,-107.893000,42.336000,-63.725000,29.66
0.077566,0.605000,-0.054000,-1.077000,-92.504000,35.130000,-55.099000,29.57
0.077992,0.712000,-0.170000,-1.136000,-74.092000,31.466000,-45.756000,29.61
0.078421,0.542000,-0.222000,-0.857000,-62.992000,22.046000,-41.038000,29.61
0.078869,0.456000,-0.297000,-0.858000,-58.779000,23.130000,-40.198000,29.66
0.079453,0.640000,-0.313000,-0.856000,-50.794000,23.466000,-37.740000,29.57
0.079932,0.550000,-0.100000,-0.885000,-44.824000,19.374000,-36.748000,29.61
0.080361,0.569000,-0.230000,-0.857000,-40.366000,16.336000,-34.947000,29.61
0.080795,0.548000,-0.235000,-0.835000,-36.656000,12.809000,-34.824000,29.57
0.081223,0.546000,-0.212000,-0.850000,-32.092000,13.740000,-33.924000,29.66
0.081651,0.545000,-0.142000,-0.847000,-26.733000,15.985000,-31.603000,29.57
0.082086,0.550000,-0.150000,-0.850000,-25.282000,19.588000,-29.450000,29.61
0.082518,0.539000,-0.139000,-0.857000,-22.443000,24.443000,-27.985000,29.71
0.082946,0.673000,-0.073000,-0.912000,-18.901000,34.550000,-22.916000,29.66
0.083374,0.554000,-0.093000,-0.860000,-14.962000,37.802000,-18.794000,29.66
0.083803,0.538000,-0.110000,-0.840000,-12.748000,41.710000,-16.244000,29.71
0.084225,0.539000,-0.171000,-0.862000,-11.267000,42.977000,-16.595000,29.66
0.084648,0.561000,-0.108000,-0.806000,-9.191000,46.824000,-15.084000,29.57
0.085157,0.542000,-0.192000,-0.795000,-12.107000,55.191000,-14.321000,29.66
0.085804,0.562000,-0.132000,-0.842000,-11.466000,57.618000,-12.458000,29.61
0.086278,0.574000,-0.027000,-0.859000,-8.076000,64.840000,-8.855000,29.61
0.086743,0.584000,-0.067000,-0.853000,-4.763000,71.221000,-5.695000,29.66
0.087195,0.607000,-0.090000,-0.856000,-3.557000,76.473000,-2.672000,29.66
0.087679,0.602000,-0.112000,-0.822000,-3.191000,84.168000,0.702000,29.57
0.088147,0.598000,-0.158000,-0.822000,0.412000,91.527000,2.702000,29.61
0.088591,0.629000,-0.170000,-0.802000,6.260000,98.840000,4.626000,29.61
0.089037,0.696000,-0.101000,-0.793000,15.557000,104.748000,8.748000,29.66
0.089597,0.721000,-0.086000,-0.802000,21.374000,105.405000,12.702000,29.57
0.090108,0.706000,-0.089000,-0.785000,28.198000,99.771000,14.611000,29.61
0.090563,0.668000,-0.139000,-0.762000,27.634000,92.763000,13.160000,29.71
0.091028,0.656000,-0.226000,-0.780000,21.863000,84.382000,6.794000,29.66
0.091487,0.715000,-0.304000,-0.691000,15.008000,72.931000,-1.374000,29.57
0.091931,0.746000,-0.323000,-0.657000,13.191000,68.137000,-12.168000,29.52
0.092488,0.737000,-0.354000,-0.682000,8.397000,58.779000,-25.252000,29.71
0.092970,0.713000,-0.349000,-0.627000,-1.435000,52.015000,-36.305000,29.57
0.093432,0.746000,-0.317000,-0.640000,-10.214000,50.992000,-46.702000,29.66
0.093892,0.749000,-0.293000,-0.683000,-13.954000,50.366000,-54.916000,29.52
0.094354,0.772000,-0.234000,-0.717000,-16.290000,57.176000,-62.840000,29.61
0.094815,0.797000,-0.273000,-0.789000,-19.099000,65.634000,-71.389000,29.61
0.095271,0.751000,-0.301000,-0.802000,-27.786000,67.557000,-80.015000,29.66
0.095712,0.726000,-0.222000,-0.785000,-32.458000,78.458000,-91.160000,29.66
0.096169,0.825000,-0.272000,-0.758000,-34.672000,75.847000,-100.153000,29.61
0.096628,0.844000,-0.168000,-0.691000,-22.351000,80.321000,-108.534000,29.57
0.097209,0.884000,-0.203000,-0.736000,2.687000,84.168000,-114.687000,29.57
0.097890,0.833000,-0.209000,-0.755000,29.969000,80.595000,-121.573000,29.66
0.098368,0.663000,-0.297000,-0.690000,54.870000,71.389000,-127.649000,29.66
0.098809,0.504000,-0.461000,-0.769000,77.954000,63.634000,-130.168000,29.61
0.099299,0.307000,-0.620000,-0.985000,99.817000,39.832000,-126.031000,29.66
0.099835,0.115000,-0.688000,-1.066000,125.099000,16.290000,-116.504000,29.66
0.100325,0.046000,-0.643000,-0.885000,144.519000,-5.802000,-109.298000,29.66
0.100843,0.088000,-0.581000,-0.717000,156.580000,-14.275000,-107.863000,29.61
0.101315,0.277000,-0.396000,-0.744000,166.321000,-21.008000,-111.481000,29.61
0.101811,0.483000,-0.147000,-0.852000,186.244000,-31.221000,-116.366000,29.75
0.102346,0.680000,0.043000,-0.873000,208.015000,-46.855000,-125.313000,29.57
0.102829,0.676000,0.090000,-0.783000,219.374000,-56.824000,-133.969000,29.66
0.103274,0.751000,0.158000,-0.733000,225.466000,-62.595000,-143.130000,29.61
0.103722,0.763000,0.228000,-0.738000,230.046000,-63.618000,-149.954000,29.61
0.104158,0.821000,0.295000,-0.725000,231.115000,-66.519000,-156.214000,29.57
0.104593,0.869000,0.280000,-0.724000,233.466000,-68.168000,-160.198000,29.66
0.105030,0.859000,0.240000,-0.747000,235.405000,-77.496000,-159.969000,29.71
0.105460,0.784000,0.128000,-0.719000,227.985000,-88.672000,-155.511000,29.71
0.105896,0.713000,-0.007000,-0.682000,216.168000,-87.695000,-146.611000,29.75
0.106360,0.705000,-0.099000,-0.713000,202.901000,-87.435000,-135.206000,29.57
0.106800,0.650000,-0.141000,-0.750000,191.725000,-88.107000,-119.695000,29.61
0.107258,0.595000,-0.148000,-0.735000,184.183000,-88.427000,-100.183000,29.61
0.107688,0.521000,-0.200000,-0.696000,178.000000,-87.527000,-80.947000,29.57
0.108120,0.512000,-0.241000,-0.698000,167.710000,-81.359000,-62.153000,29.66
0.108562,0.514000,-0.186000,-0.732000,155.740000,-76.855000,-47.832000,29.61
0.108992,0.541000,-0.024000,-0.781000,147.023000,-72.183000,-38.687000,29.57
0.109523,0.570000,0.162000,-0.879000,143.710000,-71.374000,-34.458000,29.66
0.110167,0.731000,0.314000,-1.046000,137.221000,-77.603000,-39.985000,29.57
0.110698,0.660000,0.422000,-0.950000,126.626000,-86.870000,-46.870000,29.71
0.111160,0.695000,0.469000,-0.882000,123.740000,-88.061000,-55.634000,29.71
0.111590,0.791000,0.512000,-0.818000,120.779000,-87.252000,-69.878000,29.66
0.112035,0.836000,0.677000,-0.830000,114.031000,-90.824000,-90.870000,29.66
0.112500,0.946000,0.916000,-0.876000,116.885000,-92.962000,-113.099000,29.61
0.112934,0.988000,0.946000,-0.771000,128.000000,-89.344000,-133.191000,29.61
0.113367,0.991000,0.784000,-0.710000,131.969000,-97.237000,-149.267000,29.66
0.113805,1.004000,0.547000,-0.609000,126.244000,-87.740000,-158.305000,29.57
0.114235,1.050000,0.314000,-0.619000,116.198000,-78.076000,-159.115000,29.66
0.114691,0.886000,0.143000,-0.647000,101.832000,-74.748000,-150.046000,29.61
0.115124,0.735000,-0.027000,-0.667000,92.046000,-67.359000,-136.641000,29.71
0.115562,0.591000,-0.039000,-0.729000,75.847000,-61.634000,-121.710000,29.66
0.115998,0.538000,-0.004000,-0.815000,62.931000,-59.786000,-105.924000,29.66
0.116424,0.456000,0.007000,-0.806000,46.916000,-60.809000,-89.038000,29.61
0.116860,0.372000,-0.022000,-0.729000,25.618000,-59.008000,-72.305000,29.71
0.117316,0.379000,-0.060000,-0.843000,-2.626000,-54.412000,-49.908000,29.66
0.117752,0.527000,0.105000,-0.991000,-25.832000,-54.168000,-22.198000,29.66
0.118176,0.465000,0.405000,-0.955000,-5.588000,-49.710000,0.855000,29.61
0.118604,0.654000,0.278000,-0.935000,19.786000,-40.244000,18.321000,29.66
0.119157,0.607000,-0.246000,-0.905000,34.687000,-33.985000,29.649000,29.66
0.119668,0.467000,-0.475000,-0.871000,32.046000,-32.580000,23.405000,29.66
0.120117,0.594000,-0.558000,-0.840000,23.618000,-20.916000,16.519000,29.61
0.120551,0.413000,-0.510000,-0.782000,14.244000,-5.450000,7.023000,29.71
0.120964,0.416000,-0.261000,-0.868000,7.618000,4.015000,0.458000,29.66
0.121478,0.469000,-0.132000,-0.863000,1.359000,5.282000,-2.687000,29.57
0.122134,0.547000,-0.231000,-0.839000,0.992000,5.450000,-2.794000,29.71
0.122609,0.544000,-0.259000,-0.812000,-0.443000,3.420000,-4.672000,29.61
0.123070,0.517000,-0.231000,-0.810000,-3.160000,-0.260000,-7.328000,29.57
0.123527,0.525000,-0.153000,-0.825000,-3.267000,-1.908000,-7.389000,29.66
0.123970,0.512000,-0.081000,-0.840000,0.336000,-1.695000,-4.183000,29.71
0.124395,0.498000,-0.050000,-0.860000,4.626000,0.061000,0.641000,29.61
0.124842,0.489000,-0.067000,-0.866000,12.214000,4.885000,4.198000,29.57
0.125282,0.498000,-0.140000,-0.883000,17.160000,7.374000,5.573000,29.66
0.125732,0.521000,-0.163000,-0.848000,17.679000,10.901000,7.130000,29.57
0.126173,0.525000,-0.156000,-0.833000,18.305000,11.542000,8.534000,29.71
0.126621,0.526000,-0.209000,-0.837000,17.435000,10.427000,8.534000,29.61
0.127072,0.539000,-0.232000,-0.843000,15.084000,10.031000,7.191000,29.66
0.127617,0.529000,-0.260000,-0.825000,12.336000,9.374000,5.267000,29.57
0.128079,0.533000,-0.251000,-0.834000,9.038000,8.611000,2.595000,29.61
0.128513,0.536000,-0.229000,-0.837000,6.519000,8.489000,0.748000,29.57
0.128950,0.540000,-0.240000,-0.836000,4.458000,7.863000,-0.779000,29.66
0.129445,0.544000,-0.219000,-0.836000,2.595000,7.878000,-1.542000,29.66
0.129998,0.531000,-0.208000,-0.836000,1.420000,7.924000,-1.817000,29.61
0.130454,0.542000,-0.208000,-0.822000,0.565000,7.344000,-1.939000,29.61
0.130900,0.551000,-0.184000,-0.835000,0.779000,7.679000,-1.038000,29.57
0.131377,0.531000,-0.207000,-0.836000,0.504000,8.397000,-0.840000,29.66
0.131822,0.543000,-0.214000,-0.824000,-0.351000,8.305000,-1.145000,29.61
0.132341,0.542000,-0.204000,-0.829000,-1.069000,7.527000,-1.618000,29.61
0.132808,0.550000,-0.206000,-0.820000,-1.695000,6.824000,-1.496000,29.66
0.133249,0.552000,-0.201000,-0.819000,-2.214000,5.603000,-1.664000,29.57
0.133692,0.544000,-0.191000,-0.815000,-2.046000,4.260000,-1.267000,29.57
0.134135,0.547000,-0.174000,-0.838000,-1.527000,4.168000,-0.458000,29.52
0.134568,0.546000,-0.181000,-0.823000,-0.809000,3.878000,0.305000,29.71
0.135004,0.541000,-0.177000,-0.831000,-0.015000,3.725000,1.359000,29.57
0.135438,0.542000,-0.179000,-0.834000,0.794000,3.664000,2.153000,29.57
0.135881,0.549000,-0.193000,-0.832000,1.069000,3.389000,2.992000,29.61
0.136319,0.549000,-0.184000,-0.830000,1.359000,2.153000,3.695000,29.61
0.136749,0.540000,-0.190000,-0.817000,1.588000,1.802000,4.321000,29.57
0.137186,0.528000,-0.213000,-0.822000,1.389000,1.267000,4.046000,29.57
0.137648,0.524000,-0.219000,-0.816000,0.901000,1.191000,3.527000,29.71
0.138054,0.519000,-0.231000,-0.814000,0.183000,1.527000,2.412000,29.66
0.138479,0.522000,-0.246000,-0.826000,-1.313000,1.679000,0.992000,29.66
0.138894,0.527000,-0.250000,-0.833000,-3.130000,2.809000,-0.336000,29.66
0.139309,0.523000,-0.275000,-0.809000,-6.290000,2.626000,-2.595000,29.71
0.139829,0.529000,-0.232000,-0.819000,-8.641000,2.550000,-4.473000,29.61
0.140383,0.537000,-0.216000,-0.820000,-9.725000,2.015000,-4.855000,29.66
0.140828,0.543000,-0.230000,-0.832000,-11.450000,1.649000,-5.588000,29.66
0.141271,0.546000,-0.226000,-0.847000,-13.786000,1.038000,-6.672000,29.61
0.141714,0.548000,-0.212000,-0.840000,-15.527000,0.794000,-7.053000,29.61
0.142200,0.546000,-0.197000,-0.843000,-16.366000,0.901000,-6.519000,29.66
0.142649,0.540000,-0.185000,-0.843000,-16.550000,1.282000,-6.214000,29.66
0.143071,0.521000,-0.177000,-0.833000,-16.076000,2.321000,-5.344000,29.61
0.143490,0.520000,-0.180000,-0.834000,-15.588000,4.168000,-4.595000,29.71
0.143912,0.520000,-0.181000,-0.840000,-15.206000,5.695000,-4.641000,29.57
0.144340,0.517000,-0.221000,-0.815000,-15.084000,7.115000,-5.679000,29.66
0.144766,0.509000,-0.222000,-0.819000,-16.275000,8.595000,-7.389000,29.61
0.145188,0.531000,-0.203000,-0.814000,-17.206000,10.641000,-8.794000,29.66
0.145630,0.505000,-0.219000,-0.814000,-17.603000,13.863000,-8.611000,29.57
0.146057,0.523000,-0.203000,-0.836000,-18.260000,16.305000,-10.443000,29.57
0.146480,0.521000,-0.224000,-0.827000,-18.015000,20.031000,-13.374000,29.61
0.146909,0.547000,-0.298000,-0.835000,-22.443000,21.160000,-17.282000,29.61
0.147356,0.381000,0.070000,-0.890000,-14.702000,26.122000,-35.359000,29.66
0.147804,0.568000,-0.187000,-0.903000,-6.198000,19.298000,-42.962000,29.57
0.148224,0.500000,-0.017000,-0.812000,13.023000,26.611000,-60.061000,29.57
0.148641,0.600000,-0.004000,-0.881000,35.985000,18.214000,-77.221000,29.71
0.149058,0.531000,-0.027000,-0.852000,54.061000,19.405000,-92.336000,29.61
0.149580,0.615000,-0.138000,-0.823000,70.305000,19.160000,-107.527000,29.66
0.150164,0.617000,-0.169000,-0.824000,86.458000,15.130000,-121.435000,29.66
0.150659,0.594000,-0.166000,-0.793000,100.733000,7.985000,-136.641000,29.61
0.151157,0.592000,-0.181000,-0.800000,116.458000,-0.458000,-151.313000,29.61
0.151604,0.555000,-0.266000,-0.818000,127.725000,-11.160000,-165.130000,29.57
0.152089,0.505000,-0.353000,-0.812000,131.344000,-20.076000,-177.191000,29.66
0.152653,0.497000,-0.336000,-0.826000,133.313000,-29.450000,-187.695000,29.61
0.153123,0.470000,-0.307000,-0.821000,142.336000,-37.420000,-195.618000,29.71
0.153577,0.455000,-0.315000,-0.872000,156.733000,-44.458000,-195.969000,29.57
0.154041,0.427000,-0.334000,-0.892000,176.397000,-50.702000,-188.122000,29.57
0.154498,0.407000,-0.411000,-0.835000,194.779000,-54.046000,-176.580000,29.61
0.154961,0.401000,-0.463000,-0.842000,191.420000,-60.962000,-174.351000,29.66
0.155412,0.440000,-0.280000,-0.907000,180.855000,-64.595000,-172.122000,29.57
0.155853,0.428000,-0.103000,-0.897000,177.389000,-68.656000,-173.939000,29.66
0.156287,0.468000,0.011000,-0.904000,173.359000,-75.237000,-182.046000,29.52
0.156719,0.458000,0.094000,-0.866000,164.840000,-78.321000,-192.748000,29.61
0.157259,0.463000,0.159000,-0.828000,155.237000,-78.397000,-203.359000,29.66
0.157859,0.476000,0.161000,-0.784000,141.282000,-75.771000,-213.771000,29.66
0.158343,0.503000,0.201000,-0.761000,122.504000,-73.237000,-224.534000,29.52
0.158855,0.548000,0.266000,-0.739000,106.122000,-66.687000,-232.962000,29.61
0.159351,0.642000,0.339000,-0.739000,94.702000,-60.183000,-237.634000,29.57
0.159849,0.878000,0.399000,-0.842000,96.260000,-53.176000,-230.229000,29.66
0.160481,0.881000,0.057000,-0.784000,109.405000,-52.061000,-209.496000,29.57
0.161035,0.891000,-0.274000,-0.859000,102.351000,-60.550000,-178.137000,29.61
0.161476,0.745000,-0.389000,-0.659000,78.565000,-61.115000,-146.229000,29.61
0.161915,0.632000,-0.414000,-0.636000,52.183000,-55.420000,-109.115000,29.66
0.162353,0.609000,-0.414000,-0.746000,23.542000,-49.450000,-65.160000,29.57
0.162842,0.564000,-0.334000,-0.777000,-4.168000,-43.344000,-14.015000,29.61
0.163262,0.430000,0.538000,-0.800000,6.901000,-27.878000,9.282000,29.61
0.163686,0.518000,0.460000,-1.253000,21.847000,-48.580000,9.786000,29.66
0.164124,0.340000,-0.218000,-0.848000,30.885000,-47.084000,11.145000,29.75
0.164566,0.448000,-0.808000,-0.722000,26.962000,-20.489000,10.000000,29.71
0.164992,0.363000,-0.710000,-0.728000,5.878000,-4.137000,-0.153000,29.66
0.165406,0.345000,-0.111000,-0.895000,-5.069000,7.282000,-7.542000,29.66
0.165820,0.562000,-0.076000,-0.897000,-2.489000,2.305000,-6.885000,29.57
0.166240,0.602000,-0.257000,-0.776000,0.366000,-1.252000,-4.763000,29.61
0.166660,0.512000,-0.261000,-0.813000,-0.763000,-1.771000,-5.771000,29.61
0.167111,0.449000,-0.227000,-0.824000,-4.550000,0.321000,-9.786000,29.57
0.167557,0.460000,-0.273000,-0.808000,-9.710000,2.794000,-13.954000,29.57
0.168009,0.485000,-0.197000,-0.844000,-12.321000,1.023000,-16.305000,29.61
0.168524,0.507000,-0.100000,-0.881000,-9.344000,-2.840000,-15.313000,29.52
0.168969,0.516000,-0.068000,-0.866000,-4.336000,-4.901000,-11.710000,29.57
0.169487,0.484000,-0.104000,-0.873000,-0.122000,-2.015000,-8.718000,29.66
0.170004,0.429000,-0.114000,-0.851000,1.664000,1.160000,-7.985000,29.71
0.170593,0.457000,-0.142000,-0.852000,3.496000,4.198000,-7.832000,29.61
0.171057,0.515000,-0.199000,-0.860000,3.527000,7.206000,-8.489000,29.71
0.171508,0.547000,-0.208000,-0.850000,2.336000,7.389000,-8.550000,29.66
0.171943,0.540000,-0.177000,-0.854000,1.878000,5.435000,-8.244000,29.66
0.172430,0.525000,-0.211000,-0.830000,1.832000,3.771000,-7.939000,29.61
0.172908,0.507000,-0.221000,-0.852000,-0.137000,2.366000,-9.038000,29.61
0.173341,0.516000,-0.187000,-0.858000,-2.443000,1.985000,-9.802000,29.57
0.173772,0.526000,-0.168000,-0.858000,-3.985000,1.893000,-9.328000,29.57
0.174188,0.519000,-0.145000,-0.871000,-3.954000,2.305000,-8.198000,29.61
0.174605,0.509000,-0.158000,-0.874000,-3.267000,3.481000,-6.992000,29.57
0.175024,0.504000,-0.168000,-0.870000,-3.145000,4.412000,-6.351000,29.57
0.175436,0.506000,-0.165000,-0.859000,-3.405000,5.557000,-6.046000,29.57
0.175857,0.498000,-0.169000,-0.862000,-3.847000,6.656000,-5.878000,29.71
0.176273,0.508000,-0.164000,-0.854000,-4.168000,7.435000,-5.710000,29.61
0.176690,0.521000,-0.151000,-0.854000,-3.954000,7.328000,-5.160000,29.66
0.177125,0.515000,-0.149000,-0.852000,-3.389000,7.298000,-4.260000,29.66
0.177568,0.519000,-0.153000,-0.857000,-2.947000,7.130000,-3.649000,29.61
0.178000,0.507000,-0.165000,-0.847000,-2.870000,6.885000,-3.053000,29.61
0.178415,0.512000,-0.156000,-0.844000,-2.870000,6.412000,-3.023000,29.66
0.178835,0.518000,-0.156000,-0.845000,-3.191000,5.924000,-3.206000,29.66
0.179250,0.512000,-0.159000,-0.844000,-3.359000,5.542000,-2.962000,29.61
0.179763,0.504000,-0.143000,-0.846000,-3.130000,5.481000,-2.641000,29.52
0.180367,0.509000,-0.157000,-0.833000,-2.809000,5.695000,-2.565000,29.66
0.180818,0.498000,-0.150000,-0.851000,-2.656000,5.649000,-2.244000,29.66
0.181279,0.509000,-0.148000,-0.853000,-2.534000,5.603000,-2.076000,29.61
0.181718,0.518000,-0.145000,-0.846000,-2.214000,5.221000,-1.649000,29.66
0.182188,0.510000,-0.147000,-0.842000,-1.740000,5.313000,-1.267000,29.66
0.182627,0.518000,-0.149000,-0.841000,-1.267000,5.344000,-1.069000,29.66
0.183043,0.516000,-0.152000,-0.842000,-0.580000,5.328000,-0.412000,29.61
0.183463,0.517000,-0.150000,-0.847000,0.702000,5.359000,-0.076000,29.61
0.183868,0.523000,-0.150000,-0.849000,1.130000,5.038000,0.244000,29.66
0.184273,0.521000,-0.160000,-0.842000,1.420000,5.145000,0.611000,29.57
0.184676,0.515000,-0.152000,-0.846000,1.817000,4.779000,0.870000,29.61
0.185080,0.522000,-0.162000,-0.845000,1.588000,4.595000,0.763000,29.52
0.185484,0.520000,-0.165000,-0.842000,1.115000,4.351000,0.473000,29.75
0.185914,0.515000,-0.166000,-0.845000,0.870000,4.534000,0.321000,29.66
0.186336,0.521000,-0.162000,-0.850000,0.427000,4.351000,0.214000,29.71
0.186743,0.525000,-0.167000,-0.847000,-0.092000,4.214000,0.534000,29.61
0.187165,0.521000,-0.161000,-0.843000,-0.260000,4.000000,0.290000,29.57
0.187587,0.521000,-0.168000,-0.850000,-0.290000,4.290000,0.550000,29.66
0.188033,0.521000,-0.172000,-0.844000,-0.305000,4.962000,0.305000,29.61
0.188454,0.511000,-0.182000,-0.849000,-0.458000,5.786000,0.061000,29.61
0.188869,0.515000,-0.173000,-0.841000,-0.885000,6.550000,-0.275000,29.66
0.189281,0.515000,-0.165000,-0.834000,-1.176000,6.321000,-0.595000,29.57
0.189772,0.513000,-0.164000,-0.836000,-1.450000,6.412000,-0.626000,29.66
0.190355,0.521000,-0.165000,-0.843000,-1.389000,6.412000,-0.779000,29.71
0.190805,0.520000,-0.170000,-0.834000,-1.557000,6.748000,-0.687000,29.57
0.191247,0.524000,-0.178000,-0.841000,-1.878000,7.206000,-0.641000,29.66
0.191684,0.530000,-0.170000,-0.851000,-2.031000,7.725000,-0.672000,29.57
0.192201,0.533000,-0.167000,-0.845000,-2.641000,7.863000,-0.443000,29.61
0.192664,0.529000,-0.163000,-0.847000,-3.954000,7.924000,-0.443000,29.71
0.193104,0.536000,-0.167000,-0.860000,-5.084000,7.435000,-0.275000,29.57
0.193554,0.553000,-0.167000,-0.856000,-6.656000,7.450000,0.275000,29.57
0.194040,0.573000,-0.163000,-0.860000,-7.130000,7.511000,1.557000,29.61
0.194482,0.565000,-0.157000,-0.844000,-8.137000,7.756000,3.069000,29.71
0.194895,0.559000,-0.176000,-0.852000,-9.710000,7.771000,3.939000,29.66
0.195305,0.562000,-0.201000,-0.840000,-11.084000,6.687000,4.412000,29.66
0.195721,0.517000,-0.212000,-0.838000,-12.962000,5.802000,3.374000,29.61
0.196135,0.500000,-0.204000,-0.842000,-12.794000,7.298000,1.267000,29.71
0.196549,0.556000,-0.212000,-0.833000,-13.099000,9.542000,0.534000,29.71
0.196965,0.487000,-0.187000,-0.840000,-13.191000,10.397000,-0.061000,29.66
0.197407,0.513000,-0.181000,-0.847000,-11.649000,13.954000,-1.313000,29.66
0.197837,0.481000,-0.176000,-0.837000,-9.847000,16.885000,-2.809000,29.61
0.198261,0.473000,-0.187000,-0.843000,-11.817000,18.901000,-5.954000,29.52
0.198686,0.534000,-0.132000,-0.853000,-8.641000,20.947000,-7.618000,29.66
0.199098,0.415000,0.253000,-0.863000,8.840000,21.481000,-26.092000,29.57
0.199513,0.648000,0.103000,-1.014000,37.664000,8.366000,-52.107000,29.61
0.200018,0.539000,-0.030000,-0.784000,54.321000,4.351000,-77.878000,29.57
0.200592,0.658000,-0.171000,-0.827000,70.000000,2.855000,-95.252000,29.66
0.201040,0.646000,-0.168000,-0.789000,76.015000,-0.260000,-108.977000,29.66
0.201492,0.702000,-0.219000,-0.751000,75.863000,-3.328000,-121.389000,29.71
0.201939,0.714000,-0.246000,-0.777000,76.244000,-9.038000,-129.802000,29.61
0.202472,0.704000,-0.229000,-0.740000,72.702000,-18.870000,-136.687000,29.47
0.202940,0.747000,-0.371000,-0.609000,75.863000,-21.267000,-132.733000,29.66
0.203380,0.784000,-0.483000,-0.563000,85.145000,-15.099000,-122.656000,29.57
0.203836,0.743000,-0.542000,-0.627000,84.855000,-11.511000,-112.977000,29.52
0.204404,0.618000,-0.528000,-0.577000,82.779000,-9.344000,-102.397000,29.61
0.204933,0.519000,-0.465000,-0.550000,82.672000,-3.176000,-91.786000,29.57
0.205374,0.428000,-0.435000,-0.578000,83.053000,2.046000,-80.763000,29.66
0.205826,0.377000,-0.411000,-0.632000,82.031000,7.115000,-69.237000,29.52
0.206285,0.307000,-0.368000,-0.664000,78.275000,11.313000,-58.427000,29.71
0.206726,0.268000,-0.299000,-0.727000,72.779000,13.969000,-49.115000,29.66
0.207162,0.219000,-0.228000,-0.759000,70.137000,16.046000,-41.954000,29.57
0.207577,0.467000,-0.368000,-0.759000,42.244000,6.198000,-67.450000,29.61
0.208016,0.633000,0.540000,-1.839000,-14.031000,-37.634000,-85.176000,29.71
0.208454,0.292000,1.234000,-1.098000,2.687000,-57.771000,-104.672000,29.57
0.208886,0.508000,0.591000,-0.871000,38.855000,-58.443000,-109.145000,29.66
0.209310,0.824000,-0.320000,-0.956000,30.198000,-74.611000,-92.672000,29.71
0.209747,0.737000,-0.549000,-0.628000,-1.695000,-72.534000,-61.802000,29.61
0.210193,0.517000,-0.155000,-0.813000,-16.031000,-65.511000,-27.053000,29.57
0.210608,0.492000,0.690000,-0.934000,-8.672000,-55.344000,0.931000,29.57
0.211026,0.420000,0.561000,-1.061000,18.809000,-63.832000,15.282000,29.71
0.211457,0.194000,-0.309000,-0.892000,22.794000,-65.939000,9.557000,29.61
0.211872,0.482000,-0.856000,-0.808000,11.313000,-41.359000,5.130000,29.66
0.212311,0.382000,-0.566000,-0.903000,-7.588000,-18.519000,-7.573000,29.57
0.212764,0.402000,-0.164000,-0.969000,-15.328000,-3.313000,-14.198000,29.57
0.213198,0.536000,-0.101000,-0.927000,-11.405000,-1.832000,-10.824000,29.61
0.213614,0.551000,-0.111000,-0.884000,-7.588000,-2.015000,-6.397000,29.61
0.214135,0.503000,-0.101000,-0.865000,-6.168000,-0.870000,-4.565000,29.66
0.214755,0.529000,-0.184000,-0.839000,-6.275000,2.351000,-4.397000,29.66
0.215187,0.522000,-0.228000,-0.810000,-7.985000,3.878000,-5.954000,29.61
0.215599,0.495000,-0.148000,-0.836000,-9.053000,3.008000,-7.573000,29.61
0.216018,0.506000,-0.085000,-0.854000,-7.206000,-0.611000,-7.176000,29.75
0.216438,0.499000,-0.054000,-0.868000,-3.908000,-3.466000,-4.962000,29.66
0.216853,0.481000,-0.056000,-0.868000,0.275000,-3.740000,-2.641000,29.61
0.217282,0.475000,-0.089000,-0.864000,3.863000,-1.145000,-1.160000,29.61
0.217683,0.458000,-0.096000,-0.842000,7.588000,2.153000,0.076000,29.66
0.218097,0.464000,-0.074000,-0.879000,11.313000,4.672000,1.878000,29.66
0.218575,0.498000,-0.102000,-0.854000,13.481000,3.969000,4.015000,29.57
0.219031,0.511000,-0.153000,-0.860000,13.313000,2.000000,4.611000,29.61
0.219457,0.500000,-0.167000,-0.843000,11.435000,1.557000,3.634000,29.61
0.219875,0.499000,-0.186000,-0.846000,9.344000,1.130000,2.534000,29.57
0.220293,0.505000,-0.178000,-0.858000,6.061000,-0.702000,1.023000,29.66
0.220709,0.496000,-0.184000,-0.859000,3.405000,-1.603000,0.260000,29.61
0.221127,0.500000,-0.184000,-0.875000,0.947000,-1.634000,-0.473000,29.66
0.221554,0.494000,-0.186000,-0.873000,-1.359000,-1.191000,-0.855000,29.66
0.221977,0.487000,-0.208000,-0.875000,-3.573000,0.229000,-1.603000,29.66
0.222410,0.495000,-0.199000,-0.866000,-5.237000,1.771000,-2.260000,29.61
0.222835,0.501000,-0.200000,-0.862000,-6.718000,2.611000,-3.359000,29.61
0.223264,0.503000,-0.204000,-0.871000,-8.397000,2.855000,-4.366000,29.57
0.223687,0.494000,-0.205000,-0.860000,-10.519000,2.427000,-5.878000,29.57
0.224198,0.490000,-0.185000,-0.865000,-11.771000,1.466000,-7.099000,29.66
0.224768,0.512000,-0.155000,-0.858000,-12.641000,1.328000,-7.344000,29.61
0.225224,0.502000,-0.145000,-0.862000,-12.626000,1.221000,-7.160000,29.61
0.225669,0.499000,-0.138000,-0.859000,-12.168000,1.405000,-6.702000,29.66
0.226120,0.497000,-0.108000,-0.862000,-10.947000,1.328000,-5.664000,29.66
0.226560,0.490000,-0.102000,-0.858000,-8.992000,1.450000,-4.595000,29.61
0.227071,0.495000,-0.095000,-0.865000,-6.672000,1.374000,-2.992000,29.61
0.227567,0.491000,-0.106000,-0.867000,-4.076000,2.000000,-1.481000,29.57
0.228019,0.500000,-0.112000,-0.858000,-1.573000,2.046000,0.000000,29.66
0.228434,0.493000,-0.119000,-0.865000,0.107000,2.122000,0.748000,29.61
0.228841,0.492000,-0.121000,-0.863000,1.420000,2.244000,1.298000,29.61
0.229247,0.488000,-0.130000,-0.868000,2.489000,2.290000,1.954000,29.66
0.229655,0.491000,-0.137000,-0.856000,2.947000,1.634000,2.366000,29.66
0.230064,0.496000,-0.140000,-0.850000,3.130000,1.069000,2.305000,29.71
0.230468,0.484000,-0.129000,-0.866000,3.557000,0.733000,2.534000,29.52
0.230876,0.493000,-0.122000,-0.878000,4.260000,1.328000,3.115000,29.61
0.231291,0.493000,-0.176000,-0.880000,3.725000,2.473000,3.389000,29.57
0.231700,0.499000,-0.220000,-0.862000,1.969000,3.786000,1.985000,29.57
0.232121,0.512000,-0.184000,-0.875000,0.977000,4.885000,1.130000,29.61
0.232530,0.529000,-0.181000,-0.870000,1.313000,4.916000,1.496000,29.57
0.232939,0.515000,-0.208000,-0.870000,0.351000,4.824000,0.977000,29.66
0.233353,0.508000,-0.199000,-0.868000,-1.160000,5.282000,0.611000,29.57
0.233764,0.507000,-0.175000,-0.878000,-2.168000,6.885000,0.901000,29.61
0.234270,0.495000,-0.169000,-0.882000,-4.824000,8.198000,0.992000,29.61
0.234875,0.466000,-0.162000,-0.874000,-6.061000,9.191000,0.321000,29.66
0.235380,0.469000,-0.142000,-0.874000,-7.038000,10.382000,-0.366000,29.57
0.235841,0.459000,-0.150000,-0.864000,-7.649000,10.855000,-1.496000,29.57
0.236278,0.488000,-0.176000,-0.843000,-8.046000,12.794000,-2.153000,29.61
0.236697,0.511000,-0.160000,-0.860000,-7.771000,13.267000,-2.214000,29.61
0.237130,0.519000,-0.141000,-0.860000,-5.725000,14.534000,-1.115000,29.57
0.237589,0.506000,-0.132000,-0.866000,-2.580000,16.626000,-0.183000,29.57
0.238008,0.510000,-0.136000,-0.877000,1.481000,19.863000,0.641000,29.61
0.238428,0.483000,-0.130000,-0.881000,5.359000,23.618000,-0.947000,29.61
0.238841,0.459000,-0.169000,-0.880000,5.313000,24.718000,-4.427000,29.57
0.239253,0.428000,-0.189000,-0.873000,0.977000,24.595000,-10.290000,29.66
0.239691,0.509000,-0.225000,-0.887000,-3.115000,21.588000,-13.069000,29.71
0.240112,0.570000,-0.228000,-0.871000,-10.656000,19.634000,-14.366000,29.61
0.240532,0.394000,0.252000,-0.867000,-0.733000,22.427000,-23.389000,29.66
0.240951,0.638000,-0.013000,-1.003000,-0.550000,10.351000,-27.237000,29.66
0.241363,0.516000,-0.133000,-0.891000,4.382000,12.153000,-35.298000,29.71
0.241781,0.486000,-0.269000,-0.839000,10.244000,6.366000,-36.855000,29.71
0.242212,0.457000,-0.422000,-0.821000,14.076000,8.550000,-32.656000,29.61
0.242623,0.626000,-0.542000,-0.811000,21.420000,8.550000,-20.122000,29.66
0.243030,0.566000,-0.545000,-0.812000,23.160000,8.046000,-9.832000,29.66
0.243444,0.562000,-0.527000,-0.842000,20.595000,4.962000,0.198000,29.61
0.243865,0.510000,-0.478000,-0.787000,18.977000,4.321000,9.298000,29.66
0.244404,0.469000,-0.426000,-0.758000,17.496000,5.420000,17.908000,29.66
0.244849,0.455000,-0.382000,-0.750000,16.840000,6.198000,25.405000,29.66
0.245269,0.442000,-0.327000,-0.756000,14.122000,6.855000,32.137000,29.61
0.245687,0.413000,-0.243000,-0.752000,11.695000,8.931000,37.542000,29.61
0.246101,0.403000,-0.154000,-0.790000,9.221000,9.695000,41.359000,29.57
0.246518,0.395000,-0.051000,-0.811000,7.130000,10.611000,42.382000,29.66
0.246923,0.393000,0.004000,-0.834000,4.718000,9.573000,41.069000,29.61
0.247346,0.413000,0.044000,-0.860000,1.374000,7.573000,36.794000,29.61
0.247874,0.438000,0.057000,-0.881000,-2.000000,4.290000,30.992000,29.66
0.248421,0.451000,0.054000,-0.896000,-5.573000,-0.382000,23.435000,29.66
0.248876,0.458000,0.056000,-0.863000,-7.145000,-5.206000,15.710000,29.66
0.249312,0.491000,0.045000,-0.872000,-6.611000,-9.786000,8.489000,29.61
0.249755,0.504000,0.017000,-0.849000,-4.794000,-13.740000,3.481000,29.71
0.250190,0.518000,-0.049000,-0.816000,-5.176000,-15.863000,0.626000,29.66
0.250633,0.504000,-0.079000,-0.734000,-8.122000,-14.794000,-0.321000,29.57
0.251083,0.482000,-0.080000,-0.675000,-10.855000,-10.641000,-0.885000,29.52
0.251529,0.443000,-0.076000,-0.588000,-15.008000,-4.580000,-2.962000,29.71
0.251995,1.000000,0.229000,-0.615000,-7.710000,18.931000,-0.656000,29.66
0.252527,0.762000,0.140000,-0.265000,-46.260000,20.931000,-8.198000,29.66
0.252981,0.712000,0.413000,-1.051000,-54.336000,18.458000,-21.847000,29.52
0.253404,1.001000,0.169000,-1.700000,-26.718000,-1.206000,-11.588000,29.66
0.253825,0.473000,-0.250000,-0.719000,-11.191000,-8.244000,-5.298000,29.66
0.254235,0.397000,-0.433000,-0.706000,-13.679000,1.985000,-5.817000,29.57
0.254655,0.493000,-0.307000,-0.948000,-15.786000,2.794000,-8.962000,29.61
0.255079,0.481000,-0.042000,-0.921000,-15.038000,-5.160000,-13.405000,29.61
0.255509,0.517000,-0.136000,-0.835000,-10.107000,-6.656000,-13.328000,29.66
0.255926,0.595000,-0.168000,-0.869000,-4.031000,-6.061000,-8.901000,29.66
0.256339,0.571000,-0.080000,-0.861000,-0.840000,-5.435000,-5.725000,29.66
0.256751,0.566000,-0.134000,-0.864000,1.634000,-5.389000,-2.901000,29.61
0.257248,0.533000,-0.181000,-0.829000,2.855000,-5.573000,-1.847000,29.52
0.257824,0.591000,-0.180000,-0.872000,2.519000,-5.221000,-1.573000,29.66
0.258274,0.565000,-0.152000,-0.839000,2.412000,-5.969000,-0.534000,29.57
0.258717,0.539000,-0.154000,-0.867000,0.550000,-6.809000,0.473000,29.61
0.259177,0.491000,-0.192000,-0.840000,-0.962000,-6.992000,0.214000,29.61
0.259628,0.478000,-0.202000,-0.850000,-2.504000,-6.916000,-1.267000,29.75
0.260057,0.483000,-0.192000,-0.850000,-4.382000,-4.214000,-2.412000,29.66
0.260488,0.492000,-0.170000,-0.860000,-4.992000,-2.809000,-2.977000,29.61
0.260930,0.484000,-0.158000,-0.873000,-4.992000,-1.527000,-3.053000,29.61
0.261372,0.496000,-0.164000,-0.880000,-4.687000,-0.321000,-3.435000,29.66
0.261784,0.479000,-0.145000,-0.865000,-4.519000,1.115000,-3.679000,29.66
0.262234,0.466000,-0.152000,-0.863000,-5.405000,2.489000,-4.870000,29.66
0.262650,0.482000,-0.140000,-0.854000,-5.832000,3.344000,-5.084000,29.71
0.263070,0.495000,-0.127000,-0.859000,-4.992000,3.176000,-4.702000,29.61
0.263495,0.491000,-0.134000,-0.847000,-4.733000,3.420000,-4.244000,29.75
0.263906,0.492000,-0.135000,-0.857000,-4.718000,3.924000,-4.107000,29.66
0.264319,0.475000,-0.138000,-0.847000,-5.053000,4.305000,-4.412000,29.61
0.264755,0.481000,-0.166000,-0.849000,-5.496000,4.779000,-5.969000,29.57
0.265169,0.509000,-0.165000,-0.852000,-6.931000,5.328000,-6.885000,29.66
0.265593,0.523000,-0.156000,-0.858000,-7.878000,4.687000,-7.130000,29.66
0.266023,0.515000,-0.150000,-0.853000,-8.733000,3.832000,-7.084000,29.71
0.266443,0.521000,-0.145000,-0.860000,-9.176000,3.618000,-6.870000,29.61
0.266858,0.524000,-0.132000,-0.852000,-8.305000,2.931000,-5.908000,29.66
0.267285,0.503000,-0.126000,-0.859000,-8.412000,2.504000,-5.527000,29.75
0.267719,0.499000,-0.115000,-0.857000,-8.244000,2.748000,-5.160000,29.57
0.268156,0.505000,-0.108000,-0.859000,-7.038000,3.313000,-4.351000,29.71
0.268603,0.495000,-0.111000,-0.858000,-6.137000,3.450000,-3.710000,29.61
0.269097,0.487000,-0.118000,-0.862000,-6.107000,4.076000,-3.847000,29.66
0.269549,0.485000,-0.139000,-0.852000,-6.565000,4.595000,-4.504000,29.66
0.270036,0.486000,-0.139000,-0.877000,-8.947000,4.718000,-5.847000,29.61
0.270471,0.469000,-0.145000,-0.848000,-13.191000,3.328000,-7.954000,29.61
0.270902,0.475000,-0.170000,-0.840000,-15.557000,2.748000,-10.458000,29.66
0.271349,0.508000,-0.135000,-0.849000,-16.275000,2.458000,-11.206000,29.66
0.271778,0.508000,-0.112000,-0.833000,-15.450000,2.748000,-10.931000,29.61
0.272216,0.506000,-0.115000,-0.848000,-13.252000,4.168000,-10.962000,29.71
0.272648,0.494000,-0.095000,-0.858000,-11.527000,4.687000,-10.611000,29.57
0.273084,0.510000,-0.104000,-0.862000,-9.908000,5.786000,-10.244000,29.66
0.273501,0.522000,-0.098000,-0.855000,-8.519000,7.038000,-9.374000,29.61
0.273916,0.531000,-0.091000,-0.856000,-6.748000,7.191000,-7.985000,29.61
0.274333,0.515000,-0.068000,-0.851000,-4.992000,6.947000,-6.626000,29.66
0.274743,0.506000,-0.059000,-0.861000,-3.069000,6.504000,-4.824000,29.66
0.275161,0.524000,-0.062000,-0.851000,-1.664000,5.695000,-3.420000,29.66
0.275577,0.513000,-0.103000,-0.853000,-0.962000,5.588000,-2.962000,29.61
0.276010,0.494000,-0.133000,-0.849000,-2.626000,5.115000,-4.122000,29.66
0.276419,0.520000,-0.131000,-0.855000,-4.672000,3.939000,-5.450000,29.66
0.276859,0.537000,-0.115000,-0.853000,-6.122000,1.802000,-5.664000,29.66
0.277298,0.546000,-0.087000,-0.855000,-6.061000,-0.168000,-5.267000,29.61
0.277891,0.548000,-0.078000,-0.844000,-5.313000,-1.985000,-4.183000,29.61
0.278518,0.537000,-0.066000,-0.849000,-3.863000,-4.351000,-2.214000,29.66
0.278987,0.521000,-0.063000,-0.842000,-3.191000,-6.550000,-1.221000,29.66
0.279437,0.504000,-0.078000,-0.833000,-3.389000,-9.145000,-1.374000,29.71
0.279892,0.486000,-0.060000,-0.846000,-3.939000,-11.863000,-1.710000,29.61
0.280341,0.478000,-0.081000,-0.843000,-5.115000,-14.076000,-2.672000,29.66
0.280784,0.465000,-0.083000,-0.844000,-6.168000,-15.511000,-3.802000,29.66
0.281245,0.462000,-0.109000,-0.871000,-8.733000,-16.519000,-5.618000,29.61
0.281690,0.491000,-0.145000,-0.873000,-9.863000,-14.626000,-7.374000,29.71
0.282190,0.490000,-0.107000,-0.875000,-10.076000,-12.321000,-7.420000,29.66
0.282684,0.485000,-0.114000,-0.877000,-10.718000,-10.580000,-7.069000,29.66
0.283155,0.503000,-0.155000,-0.879000,-12.977000,-10.000000,-8.198000,29.71
0.283611,0.509000,-0.163000,-0.867000,-15.420000,-9.481000,-9.435000,29.66
0.284069,0.446000,-0.138000,-0.883000,-16.519000,-7.481000,-11.344000,29.66
0.284521,0.454000,-0.085000,-0.881000,-18.779000,-6.656000,-12.916000,29.66
0.284975,0.460000,-0.091000,-0.886000,-19.542000,-6.855000,-13.374000,29.61
0.285446,0.461000,-0.068000,-0.893000,-18.763000,-4.061000,-13.160000,29.71
0.285918,0.491000,-0.053000,-0.892000,-15.511000,-0.870000,-11.924000,29.66
0.286348,0.532000,-0.033000,-0.912000,-11.267000,1.939000,-9.832000,29.66
0.286794,0.538000,-0.059000,-0.901000,-6.962000,1.282000,-7.908000,29.61
0.287228,0.544000,-0.039000,-0.903000,-1.573000,-0.565000,-5.817000,29.61
0.287639,0.522000,0.039000,-0.860000,8.427000,-0.550000,-1.237000,29.66
0.288059,0.480000,0.028000,-0.870000,15.511000,-0.870000,2.687000,29.66
0.288476,0.488000,-0.052000,-0.864000,16.962000,0.779000,4.122000,29.57
0.288891,0.486000,-0.077000,-0.896000,17.573000,2.855000,4.809000,29.71
0.289302,0.510000,-0.038000,-0.875000,19.695000,7.099000,6.351000,29.71
0.289712,0.511000,-0.076000,-0.870000,23.924000,9.557000,9.206000,29.57
0.290126,0.514000,-0.113000,-0.846000,28.901000,10.992000,12.824000,29.66
0.290547,0.504000,-0.060000,-0.887000,38.504000,13.053000,19.756000,29.61
0.290964,0.522000,-0.012000,-0.924000,51.344000,17.053000,30.260000,29.61
0.291384,0.411000,-0.052000,-0.938000,55.802000,20.321000,35.771000,29.57
0.291823,0.383000,-0.162000,-0.923000,55.053000,26.931000,36.229000,29.66
0.292251,0.333000,-0.204000,-0.941000,52.412000,39.252000,30.794000,29.71
0.292662,0.336000,-0.285000,-0.924000,47.267000,50.595000,23.298000,29.66
0.293076,0.292000,-0.421000,-0.940000,41.450000,62.824000,13.130000,29.66
0.293498,0.079000,-0.709000,-0.917000,34.672000,77.924000,-2.397000,29.66
0.293933,0.514000,-0.746000,-1.148000,13.771000,84.901000,-29.160000,29.71
0.294373,0.604000,-0.656000,-1.130000,21.282000,119.527000,-47.832000,29.61
0.294790,0.362000,-0.610000,-1.501000,15.420000,109.466000,-65.542000,29.66
0.298192,-0.304000,-1.866000,-2.180000,0.824000,65.084000,-56.656000,29.75
0.308159,0.296000,-2.250000,-1.767000,-40.947000,27.527000,-2.748000,29.71
0.318161,-0.778000,-1.803000,-1.031000,-44.397000,14.901000,46.550000,29.52
0.328225,-0.772000,-1.268000,-0.798000,-29.786000,21.542000,76.397000,29.66
0.338152,-0.702000,-0.992000,-0.934000,-8.672000,16.763000,88.244000,29.66
0.348215,-0.648000,-0.779000,-1.142000,-4.321000,10.519000,88.595000,29.61
0.358291,-0.671000,-0.494000,-1.238000,-0.763000,-2.046000,77.695000,29.61
0.368244,-0.584000,-0.337000,-1.373000,7.924000,-10.489000,62.061000,29.66
0.378285,-0.375000,-0.257000,-1.580000,21.298000,-24.550000,49.954000,29.66
0.388325,-0.123000,-0.243000,-1.746000,31.786000,-47.038000,44.840000,29.57
0.398301,0.013000,-0.229000,-1.610000,33.328000,-74.183000,44.931000,29.61
0.408308,0.057000,-0.177000,-1.343000,25.786000,-89.939000,44.733000,29.61
0.418313,0.190000,-0.111000,-1.231000,19.466000,-100.565000,45.634000,29.57
0.428236,0.302000,-0.105000,-1.131000,15.542000,-102.168000,52.412000,29.66
0.438377,0.368000,-0.160000,-1.019000,5.557000,-94.809000,61.969000,29.61
0.448334,0.416000,-0.100000,-0.864000,-4.473000,-94.366000,71.298000,29.66
0.458244,0.468000,-0.020000,-0.804000,-10.321000,-86.611000,79.481000,29.66
0.468458,0.554000,0.035000,-0.817000,-11.969000,-83.374000,84.397000,29.66
0.478403,0.615000,0.119000,-0.841000,-13.939000,-75.710000,83.405000,29.71
0.488220,0.639000,0.183000,-0.821000,-14.962000,-68.183000,74.214000,29.61
0.498155,0.696000,0.234000,-0.834000,-12.931000,-62.947000,59.359000,29.66
0.508512,0.796000,0.218000,-0.861000,-6.214000,-62.916000,42.458000,29.66
0.518233,0.918000,0.178000,-0.875000,4.931000,-69.603000,28.153000,29.61
0.528223,0.996000,0.138000,-0.869000,15.908000,-78.687000,16.595000,29.71
0.538186,0.981000,0.098000,-0.684000,23.496000,-83.237000,5.664000,29.66
0.548112,0.934000,0.036000,-0.503000,24.550000,-82.107000,-4.870000,29.57
0.558522,0.951000,0.018000,-0.368000,23.328000,-76.962000,-12.702000,29.61
0.568724,0.984000,-0.001000,-0.326000,21.847000,-68.840000,-16.153000,29.61
0.578510,1.011000,-0.030000,-0.266000,22.748000,-57.924000,-14.504000,29.66
0.588582,1.025000,-0.097000,-0.266000,22.947000,-45.603000,-9.344000,29.66
0.598467,1.058000,-0.145000,-0.324000,22.824000,-33.313000,-1.634000,29.61
0.608324,1.063000,-0.142000,-0.377000,23.802000,-24.015000,7.237000,29.71
0.618265,1.068000,-0.111000,-0.360000,24.382000,-15.740000,14.794000,29.71
0.628258,1.113000,-0.137000,-0.404000,24.229000,-9.435000,20.351000,29.57
0.638300,1.157000,-0.188000,-0.465000,24.580000,-9.786000,27.038000,29.66
0.648242,1.126000,-0.234000,-0.438000,24.702000,-14.931000,36.702000,29.61
0.658263,0.979000,-0.306000,-0.282000,23.496000,-19.145000,45.771000,29.57
0.668234,2.431000,-0.117000,0.874000,19.267000,45.069000,65.206000,29.57
0.678258,0.643000,-0.308000,1.166000,4.901000,68.550000,53.878000,29.66
0.688236,1.819000,-0.408000,-1.547000,-3.679000,83.130000,71.420000,29.61
0.698245,0.804000,-0.235000,-1.642000,-34.412000,35.710000,60.198000,29.61
0.708283,-0.274000,0.520000,-1.658000,-24.427000,49.878000,0.840000,29.57
0.718268,0.093000,0.405000,-1.567000,-16.626000,67.557000,-31.618000,29.57
0.728291,0.522000,0.078000,-1.433000,-17.756000,82.779000,-51.725000,29.71
0.738279,0.818000,-0.201000,-1.419000,-3.237000,75.786000,-43.374000,29.61
0.748267,0.515000,-0.020000,-1.080000,8.061000,83.435000,-33.817000,29.66
0.758290,0.115000,0.306000,-0.997000,26.504000,88.458000,-36.718000,29.57
0.768296,0.139000,0.275000,-0.906000,52.168000,85.282000,-47.389000,29.71
0.778282,0.517000,-0.317000,-0.808000,55.771000,74.626000,-46.183000,29.71
0.788279,0.779000,-0.806000,-0.825000,40.397000,72.137000,-42.137000,29.66
0.798306,0.825000,-0.958000,-0.915000,14.489000,67.939000,-34.504000,29.66
0.808319,0.641000,-0.427000,-1.007000,0.595000,64.275000,-29.389000,29.61
0.819888,0.629000,-0.377000,-1.032000,-10.855000,50.977000,-28.412000,29.66
0.828547,0.575000,-0.711000,-0.682000,-20.290000,42.626000,-23.115000,29.57
0.841910,0.391000,-0.613000,-0.651000,-31.573000,44.382000,-22.550000,29.66
0.848224,0.326000,-0.362000,-0.775000,-42.916000,44.229000,-27.893000,29.61
0.858214,0.319000,-0.383000,-0.779000,-55.313000,45.740000,-34.718000,29.61
0.868224,0.369000,-0.504000,-0.766000,-67.252000,47.725000,-40.702000,29.66
0.878285,0.451000,-0.479000,-0.861000,-75.985000,51.481000,-45.908000,29.66
0.888250,0.682000,-0.327000,-1.090000,-75.130000,52.382000,-44.229000,29.61
0.898209,0.569000,-0.148000,-0.962000,-66.489000,46.977000,-40.015000,29.61
0.908354,0.598000,-0.267000,-1.058000,-57.435000,45.863000,-37.176000,29.66
0.918271,0.492000,-0.221000,-0.869000,-50.000000,38.702000,-37.466000,29.66
0.928269,0.588000,-0.404000,-0.845000,-48.824000,36.626000,-39.771000,29.71
0.938282,0.676000,-0.145000,-0.982000,-38.855000,29.908000,-37.664000,29.61
0.948314,0.644000,-0.179000,-0.910000,-30.809000,22.962000,-32.809000,29.52
0.958340,0.583000,-0.200000,-0.864000,-25.725000,16.626000,-29.130000,29.66
0.968341,0.592000,-0.164000,-0.858000,-22.779000,13.344000,-26.046000,29.66
0.978399,0.581000,-0.142000,-0.841000,-20.275000,11.542000,-23.740000,29.61
0.988454,0.536000,-0.208000,-0.827000,-20.916000,12.443000,-23.771000,29.61
0.998442,0.501000,-0.207000,-0.809000,-23.557000,12.977000,-25.863000,29.66
1.008371,0.488000,-0.205000,-0.837000,-25.221000,15.176000,-28.000000,29.57
1.018335,0.494000,-0.140000,-0.833000,-22.702000,20.198000,-28.244000,29.61
1.028241,0.450000,-0.112000,-0.857000,-20.916000,31.573000,-25.649000,29.66
1.038175,0.457000,-0.155000,-0.844000,-16.870000,44.122000,-26.718000,29.57
1.048173,0.489000,-0.204000,-0.849000,-13.954000,54.275000,-31.908000,29.66
1.058173,0.797000,-0.603000,-0.908000,-17.084000,65.496000,-32.840000,29.61
1.068167,0.500000,-0.052000,-0.878000,-16.412000,87.130000,-32.962000,29.61
1.078214,0.515000,-0.096000,-0.893000,-18.046000,103.893000,-27.160000,29.57
1.088172,0.603000,-0.196000,-0.828000,-17.924000,118.733000,-23.176000,29.57
1.098219,0.612000,-0.188000,-0.849000,-20.733000,133.359000,-22.931000,29.61
1.108221,0.564000,-0.180000,-0.804000,-25.725000,152.626000,-23.878000,29.61
1.118249,0.528000,-0.055000,-0.847000,-27.252000,176.763000,-25.298000,29.66
1.128192,0.462000,0.020000,-0.811000,-22.305000,201.725000,-28.931000,29.66
1.138183,0.554000,-0.006000,-0.835000,-20.718000,222.580000,-31.344000,29.61
1.148150,0.568000,-0.023000,-0.871000,-14.611000,235.679000,-34.153000,29.61
1.158238,0.602000,-0.063000,-0.823000,-11.038000,251.954000,-35.405000,29.66
1.168250,0.616000,-0.189000,-0.907000,-8.015000,273.954000,-40.321000,29.66
1.178223,0.934000,-0.318000,-1.020000,8.382000,281.160000,-44.275000,29.61
1.188201,1.068000,-0.448000,-1.318000,42.305000,283.237000,-50.412000,29.61
1.198263,1.187000,-0.476000,-1.167000,74.153000,296.855000,-56.321000,29.71
1.208256,1.590000,-0.343000,-1.651000,108.672000,313.985000,-61.725000,29.66
1.218237,1.640000,-0.461000,-2.119000,108.885000,329.893000,-80.901000,29.57
1.228272,1.508000,-0.533000,-1.779000,88.107000,322.809000,-115.176000,29.61
1.238236,1.761000,-0.652000,-2.279000,82.366000,318.031000,-131.847000,29.75
1.248216,1.342000,-0.872000,-2.738000,61.221000,250.153000,-143.191000,29.66
1.258318,-1.156000,-3.037000,-3.297000,89.038000,125.695000,-63.282000,29.57
1.268310,0.809000,-2.973000,-3.233000,11.496000,10.595000,-10.153000,29.61
1.278404,-0.534000,-1.695000,-2.600000,-72.779000,-31.756000,-5.756000,29.61
1.288309,-1.143000,-1.066000,-1.718000,-88.611000,-58.321000,-1.634000,29.66
1.298331,-0.264000,-0.671000,-2.254000,-72.305000,-100.061000,-12.687000,29.57
1.308501,-0.425000,-0.551000,-2.048000,-56.458000,-159.038000,-24.748000,29.61
1.318499,-0.314000,-0.542000,-1.856000,-49.160000,-204.092000,-47.649000,29.71
1.328459,-0.126000,-0.469000,-1.765000,-53.786000,-249.405000,-74.351000,29.66
1.338385,-0.053000,-0.311000,-1.568000,-51.237000,-286.931000,-99.450000,29.66
1.348339,0.046000,-0.131000,-1.337000,-28.580000,-314.046000,-119.893000,29.71
1.358446,0.112000,-0.088000,-1.077000,9.496000,-327.893000,-132.458000,29.61
1.368425,0.196000,-0.211000,-0.840000,49.481000,-329.191000,-135.893000,29.75
1.378446,0.335000,-0.404000,-0.729000,77.511000,-318.672000,-128.443000,29.66
1.388403,0.475000,-0.619000,-0.714000,92.168000,-303.069000,-110.473000,29.66
1.398400,0.659000,-0.760000,-0.738000,98.916000,-288.779000,-83.603000,29.61
1.408416,0.787000,-0.839000,-0.748000,101.252000,-275.191000,-50.275000,29.61
1.418537,0.882000,-0.901000,-0.778000,103.954000,-259.924000,-13.389000,29.57
1.428588,0.985000,-0.932000,-0.823000,109.267000,-244.153000,29.206000,29.57
1.438566,1.059000,-0.909000,-0.852000,115.115000,-222.916000,74.275000,29.71
1.448590,1.142000,-0.854000,-0.898000,123.160000,-201.160000,117.756000,29.66
1.458625,1.245000,-0.749000,-0.877000,129.023000,-183.740000,156.687000,29.66
1.468599,1.317000,-0.620000,-0.904000,129.466000,-161.634000,189.313000,29.66
1.478664,1.396000,-0.437000,-1.029000,126.824000,-140.901000,215.176000,29.61
1.488645,1.490000,-0.179000,-1.198000,124.870000,-127.954000,230.473000,29.80
1.498670,1.631000,0.056000,-1.347000,124.092000,-126.748000,232.580000,29.57
1.508615,1.784000,0.267000,-1.419000,121.450000,-138.183000,221.817000,29.66
1.518755,1.863000,0.429000,-1.320000,118.015000,-163.328000,200.412000,29.52
1.528633,1.925000,0.584000,-1.207000,109.695000,-150.519000,173.084000,29.61
1.538810,1.950000,0.740000,-1.056000,115.435000,-148.595000,145.985000,29.57
1.548662,2.069000,0.812000,-0.979000,15.985000,-132.076000,157.084000,29.66
1.558699,2.164000,0.902000,-0.873000,137.969000,-151.588000,100.550000,29.61
1.568740,2.287000,0.857000,-0.628000,158.611000,-163.496000,85.710000,29.61
1.578572,2.376000,0.811000,-0.365000,152.550000,-151.328000,77.313000,29.75
1.588764,2.406000,0.801000,-0.128000,141.740000,-130.046000,74.550000,29.57
1.598768,2.363000,0.811000,0.112000,126.992000,-95.160000,74.382000,29.57
1.608712,2.352000,0.864000,0.293000,110.656000,-62.519000,74.183000,29.61
1.618608,2.474000,0.729000,0.376000,81.420000,-20.962000,76.153000,29.71
1.628482,2.306000,0.686000,0.605000,20.626000,10.260000,69.084000,29.66
1.638616,2.467000,0.934000,0.617000,-43.069000,41.389000,53.817000,29.66
1.648652,2.602000,1.216000,0.663000,-90.595000,73.542000,34.260000,29.61
1.658588,2.678000,1.595000,0.703000,-127.985000,112.397000,9.298000,29.66
1.668730,1.497000,0.693000,-1.729000,-93.328000,126.031000,-0.229000,29.66
1.678524,0.854000,0.347000,-2.892000,-45.176000,14.153000,-26.000000,29.57
1.688747,-0.602000,-0.072000,-1.987000,-34.702000,5.466000,-45.435000,29.71
1.698675,-0.492000,-0.272000,-0.483000,-24.824000,22.061000,-90.046000,29.61
1.708683,0.606000,-0.322000,-0.697000,1.542000,75.649000,-69.802000,29.66
1.718358,0.934000,-0.459000,-0.975000,3.679000,104.794000,-40.504000,29.66
1.728478,0.543000,-0.045000,-1.221000,3.038000,112.382000,-38.473000,29.61
1.738536,0.302000,0.278000,-1.138000,7.832000,108.763000,-55.863000,29.61
1.748643,0.343000,0.221000,-1.065000,19.634000,113.542000,-69.115000,29.66
1.758641,0.544000,-0.129000,-1.101000,32.473000,111.328000,-72.366000,29.57
1.768455,0.879000,-0.563000,-1.082000,38.580000,105.710000,-63.588000,29.61
1.778421,1.124000,-0.946000,-1.089000,15.130000,85.115000,-51.908000,29.52
1.788635,0.866000,-0.602000,-0.963000,4.351000,73.756000,-38.229000,29.57
1.798590,0.748000,-0.519000,-1.111000,-3.695000,61.664000,-31.176000,29.57
1.808771,0.685000,-0.510000,-0.951000,-8.870000,45.695000,-24.473000,29.71
1.818783,0.582000,-0.586000,-0.822000,-14.840000,36.336000,-20.794000,29.71
1.828603,0.495000,-0.481000,-0.851000,-22.046000,27.038000,-20.473000,29.57
1.838629,0.430000,-0.389000,-0.837000,-30.336000,24.489000,-22.565000,29.66
1.848643,0.341000,-0.382000,-0.739000,-37.969000,23.725000,-26.061000,29.57
1.858705,0.242000,-0.360000,-0.642000,-52.305000,28.550000,-33.374000,29.52
1.868629,0.221000,-0.353000,-0.586000,-70.595000,34.305000,-42.198000,29.66
1.878690,0.383000,-0.612000,-0.815000,-83.618000,44.794000,-47.405000,29.66
1.888588,0.523000,-0.560000,-0.914000,-84.000000,47.710000,-47.634000,29.66
1.898588,0.527000,-0.392000,-0.935000,-85.115000,50.031000,-48.962000,29.61
1.908567,0.561000,-0.344000,-0.948000,-79.603000,44.504000,-46.672000,29.61
1.918666,0.511000,-0.341000,-0.854000,-77.023000,41.511000,-47.450000,29.66
1.928539,0.552000,-0.359000,-0.858000,-76.565000,42.992000,-48.672000,29.66
1.938424,0.594000,-0.116000,-0.922000,-68.061000,31.847000,-47.847000,29.61
1.948338,0.532000,-0.413000,-0.782000,-65.344000,28.412000,-49.557000,29.61
1.958279,0.536000,-0.259000,-0.925000,-59.481000,26.305000,-50.885000,29.66
1.968322,0.522000,-0.081000,-0.941000,-49.771000,15.557000,-47.160000,29.57
1.978342,0.538000,-0.127000,-0.850000,-44.580000,20.214000,-43.252000,29.71
1.988346,0.541000,-0.094000,-0.885000,-37.313000,18.336000,-39.267000,29.61
1.998293,0.526000,-0.165000,-0.854000,-32.076000,19.481000,-36.748000,29.66
2.008288,0.532000,-0.104000,-0.885000,-28.748000,21.099000,-35.740000,29.57
2.018285,0.470000,-0.223000,-0.834000,-27.008000,28.046000,-32.580000,29.61
2.028236,0.552000,-0.141000,-0.876000,-24.916000,32.550000,-31.740000,29.61
2.038195,0.578000,-0.155000,-0.861000,-22.321000,38.198000,-31.786000,29.66
2.048225,0.372000,0.244000,-0.960000,-6.153000,42.763000,-44.580000,29.57
2.058253,0.494000,-0.406000,-0.799000,-23.756000,52.779000,-34.809000,29.71
2.068273,0.659000,-0.125000,-0.884000,-20.382000,65.618000,-31.267000,29.61
2.078289,0.537000,-0.068000,-0.893000,-21.069000,81.649000,-26.901000,29.66
2.088359,0.508000,-0.132000,-0.893000,-18.870000,98.641000,-24.763000,29.66
2.098337,0.585000,-0.192000,-0.860000,-24.107000,118.076000,-21.282000,29.57
2.108404,0.566000,-0.167000,-0.841000,-27.573000,138.794000,-22.763000,29.61
2.118417,0.554000,-0.127000,-0.805000,-32.092000,166.779000,-23.710000,29.61
2.128271,0.486000,-0.097000,-0.840000,-36.382000,195.969000,-27.695000,29.57
2.138343,0.492000,-0.123000,-0.824000,-52.198000,217.817000,-30.611000,29.66
2.148304,0.574000,0.021000,-0.864000,-31.924000,238.840000,-37.634000,29.61
2.158331,0.500000,-0.038000,-0.786000,-24.504000,250.046000,-43.252000,29.61
2.168346,0.547000,-0.081000,-0.824000,-20.779000,271.588000,-53.985000,29.57
2.178430,0.600000,-0.130000,-0.873000,-33.618000,291.405000,-69.481000,29.66
2.188391,0.623000,-0.230000,-0.802000,-53.710000,316.824000,-93.344000,29.71
2.198438,0.931000,-0.219000,-0.972000,-71.038000,349.695000,-112.702000,29.61
2.208408,1.134000,-0.275000,-0.916000,-70.550000,378.351000,-131.313000,29.66
2.218509,1.560000,-0.401000,-1.353000,-65.557000,421.313000,-141.954000,29.66
2.228523,2.077000,-0.317000,-1.797000,-52.779000,461.420000,-138.427000,29.61
2.238459,2.767000,-0.388000,-1.928000,-6.824000,459.740000,-131.038000,29.52
2.248547,2.551000,-0.881000,-2.417000,54.855000,383.939000,-132.809000,29.66
2.258506,2.681000,-0.921000,-2.294000,8.702000,309.038000,-155.878000,29.66
2.268583,1.321000,-0.913000,-2.315000,-55.618000,268.198000,-180.611000,29.61
2.278626,0.465000,-1.215000,-2.368000,-133.985000,147.511000,-158.611000,29.61
2.288536,0.353000,-1.986000,-3.908000,6.046000,112.611000,-0.260000,29.66
2.298528,2.262000,-2.350000,-4.000000,-71.939000,-96.382000,32.901000,29.57
2.308764,-1.174000,-2.145000,-1.492000,-142.168000,-138.840000,41.130000,29.57
2.318781,-0.707000,-0.952000,-1.542000,-156.947000,-149.649000,31.420000,29.61
2.328714,-0.157000,-0.533000,-1.716000,-120.137000,-193.527000,39.160000,29.61
2.339834,-0.272000,-0.330000,-1.600000,-57.038000,-195.985000,46.061000,29.66
2.349063,-0.052000,-0.475000,-1.549000,-18.519000,-229.511000,36.962000,29.66
2.358427,0.043000,-0.490000,-1.308000,-18.183000,-249.237000,11.527000,29.61
2.368988,0.139000,-0.314000,-1.159000,-20.702000,-266.641000,-18.458000,29.61
2.378715,0.349000,-0.087000,-1.116000,-1.939000,-279.511000,-39.328000,29.66
2.388191,0.518000,-0.071000,-1.046000,37.954000,-294.809000,-45.282000,29.57
2.398321,0.685000,-0.177000,-0.935000,73.939000,-298.718000,-42.519000,29.71
2.408235,0.787000,-0.385000,-0.820000,94.763000,-302.458000,-33.863000,29.71
2.418229,0.849000,-0.569000,-0.722000,98.336000,-300.061000,-19.420000,29.57
2.428273,0.890000,-0.567000,-0.678000,99.389000,-290.885000,0.977000,29.57
2.438297,0.923000,-0.530000,-0.741000,105.145000,-281.145000,27.069000,29.61
2.448262,0.995000,-0.455000,-0.767000,118.061000,-272.794000,57.099000,29.66
2.458333,1.101000,-0.426000,-0.883000,130.076000,-264.718000,85.878000,29.66
2.468367,1.191000,-0.372000,-0.934000,135.069000,-258.885000,108.840000,29.57
2.478427,1.278000,-0.325000,-0.981000,134.290000,-253.053000,126.534000,29.61
2.488400,1.311000,-0.298000,-0.993000,129.084000,-247.725000,141.344000,29.61
2.498410,1.357000,-0.152000,-1.007000,130.336000,-237.435000,156.641000,29.66
2.508451,1.437000,0.025000,-1.013000,135.481000,-224.916000,168.198000,29.57
2.518532,1.637000,0.146000,-1.051000,142.107000,-210.061000,177.786000,29.66
2.528362,1.912000,0.180000,-1.130000,140.473000,-204.489000,182.458000,29.61
2.538458,2.188000,0.187000,-1.176000,124.779000,-195.542000,181.298000,29.61
2.548531,2.447000,0.306000,-1.177000,108.687000,-208.962000,174.092000,29.66
2.558581,2.573000,0.553000,-0.997000,97.664000,-203.008000,163.298000,29.66
2.568549,2.617000,0.769000,-0.794000,99.511000,-213.481000,146.611000,29.61
2.578592,2.617000,0.865000,-0.549000,104.305000,-223.023000,128.702000,29.71
2.588599,2.759000,0.771000,-0.267000,133.954000,-241.878000,111.985000,29.66
2.598551,2.745000,0.879000,0.001000,125.710000,-193.466000,103.771000,29.75
2.608571,2.712000,0.948000,0.292000,120.397000,-161.252000,98.076000,29.61
2.618476,2.632000,1.023000,0.541000,109.649000,-125.389000,91.740000,29.61
2.628572,2.572000,1.094000,0.675000,99.023000,-87.511000,83.756000,29.66
2.638629,2.647000,1.100000,0.672000,75.649000,-59.557000,72.809000,29.66
2.648543,2.736000,1.032000,0.490000,50.153000,-36.489000,59.985000,29.61
2.658560,2.236000,0.470000,1.130000,-9.115000,26.183000,55.206000,29.61
2.668472,2.134000,1.231000,1.899000,-97.374000,45.084000,14.046000,29.66
2.678734,0.714000,1.362000,0.504000,-101.405000,99.130000,-34.626000,29.66
2.688578,1.472000,0.237000,-2.554000,-64.870000,128.351000,-34.412000,29.61
2.698653,-0.144000,-0.335000,-2.287000,-21.389000,23.069000,-40.840000,29.61
2.708646,-0.891000,-0.968000,-0.474000,-7.969000,-4.382000,-88.870000,29.57
2.718688,0.371000,-0.525000,-0.470000,-20.870000,95.802000,-90.122000,29.75
2.728609,1.317000,-0.009000,-1.014000,-8.901000,150.885000,-54.000000,29.66
2.738522,0.920000,0.495000,-1.750000,-2.275000,153.511000,-57.282000,29.61
2.748562,0.480000,0.811000,-1.660000,37.878000,143.649000,-80.153000,29.71
2.758335,0.649000,0.286000,-1.436000,41.573000,134.275000,-85.878000,29.66
2.768301,0.965000,-0.569000,-1.026000,48.366000,101.710000,-70.290000,29.57
2.778317,1.035000,-1.009000,-0.963000,29.481000,91.389000,-56.427000,29.71
2.788236,0.967000,-0.778000,-0.959000,11.160000,87.099000,-45.099000,29.71
2.798189,0.909000,-0.524000,-1.078000,-6.565000,72.275000,-40.916000,29.57
2.808200,0.850000,-0.574000,-0.919000,-14.870000,55.802000,-33.313000,29.75
2.818189,0.704000,-0.685000,-0.820000,-26.519000,44.779000,-28.718000,29.71
2.828212,0.634000,-0.503000,-0.865000,-34.824000,28.763000,-26.122000,29.71
2.838187,0.467000,-0.337000,-0.863000,-41.160000,20.458000,-25.313000,29.66
2.848161,0.354000,-0.374000,-0.752000,-48.687000,22.565000,-28.015000,29.66
2.858175,0.288000,-0.391000,-0.704000,-59.878000,25.359000,-32.885000,29.71
2.868247,0.324000,-0.365000,-0.770000,-69.511000,32.000000,-38.565000,29.71
2.878153,0.507000,-0.446000,-0.990000,-70.840000,38.275000,-39.527000,29.57
2.888204,0.594000,-0.292000,-0.988000,-67.511000,41.328000,-35.802000,29.66
2.898226,0.569000,-0.234000,-0.935000,-59.435000,40.137000,-32.397000,29.71
2.908294,0.516000,-0.336000,-0.829000,-54.656000,36.489000,-31.695000,29.71
2.918257,0.408000,-0.400000,-0.834000,-58.595000,34.595000,-34.336000,29.66
2.928298,0.563000,-0.255000,-0.905000,-59.069000,31.908000,-38.733000,29.47
2.938274,0.530000,-0.384000,-0.811000,-61.084000,26.718000,-42.122000,29.66
2.948262,0.546000,-0.307000,-0.805000,-58.366000,23.924000,-45.221000,29.61
2.958277,0.616000,-0.186000,-0.906000,-53.634000,10.931000,-45.893000,29.61
2.968389,0.512000,-0.175000,-0.850000,-48.336000,7.145000,-45.191000,29.57
2.978386,0.470000,-0.189000,-0.830000,-43.435000,5.481000,-44.015000,29.66
2.988338,0.525000,-0.137000,-0.886000,-38.534000,10.473000,-41.725000,29.71
2.998331,0.541000,-0.107000,-0.887000,-33.481000,15.206000,-37.344000,29.71
3.008348,0.505000,-0.074000,-0.851000,-27.618000,18.260000,-34.427000,29.66
3.018409,0.518000,-0.150000,-0.871000,-24.458000,24.321000,-32.473000,29.57
3.028613,0.531000,-0.111000,-0.879000,-22.824000,31.298000,-29.679000,29.71
3.038576,0.544000,-0.123000,-0.843000,-19.298000,35.374000,-28.962000,29.61
3.048504,0.556000,-0.141000,-0.848000,-16.687000,40.321000,-30.000000,29.66
3.058492,0.601000,-0.023000,-0.849000,-0.244000,44.763000,-36.992000,29.57
3.068609,0.517000,0.001000,-0.877000,-17.954000,60.855000,-30.565000,29.71
3.078460,0.528000,-0.219000,-0.846000,-18.779000,64.748000,-28.611000,29.66
3.088633,0.541000,-0.084000,-0.875000,-19.221000,79.481000,-26.183000,29.66
3.098536,0.569000,-0.105000,-0.870000,-19.634000,94.611000,-22.412000,29.66
3.108673,0.554000,-0.126000,-0.874000,-23.221000,111.588000,-19.084000,29.61
3.118707,0.558000,-0.150000,-0.855000,-40.794000,129.008000,-13.695000,29.71
3.128618,0.589000,-0.030000,-0.817000,-17.115000,159.542000,-19.130000,29.66
3.138585,0.481000,-0.114000,-0.837000,-26.153000,186.626000,-21.557000,29.66
3.148671,0.461000,-0.018000,-0.791000,-23.191000,210.947000,-29.603000,29.71
3.158662,0.519000,-0.055000,-0.807000,-26.626000,237.084000,-34.473000,29.71
3.168746,0.543000,-0.042000,-0.827000,-24.672000,252.168000,-38.870000,29.66
3.178601,0.550000,-0.006000,-0.816000,-12.397000,268.366000,-48.550000,29.66
3.188605,0.629000,-0.081000,-0.809000,-16.840000,284.870000,-61.573000,29.61
3.198618,0.637000,-0.143000,-0.754000,-32.137000,311.115000,-76.901000,29.61
3.208590,0.845000,-0.152000,-0.884000,-45.405000,334.901000,-87.740000,29.66
3.218581,1.085000,-0.224000,-0.900000,-47.450000,361.359000,-96.489000,29.57
3.228561,1.299000,-0.427000,-1.197000,-22.321000,391.573000,-97.817000,29.61
3.238581,1.835000,-0.403000,-1.562000,33.252000,405.435000,-80.366000,29.61
3.248652,2.588000,-0.508000,-2.001000,78.748000,397.298000,-68.565000,29.66
3.258642,2.315000,-0.295000,-1.775000,81.221000,373.191000,-85.267000,29.66
3.268696,2.242000,-0.293000,-1.956000,23.038000,335.786000,-129.649000,29.61
3.278470,1.653000,-0.674000,-2.273000,-21.130000,281.115000,-142.489000,29.61
3.288674,0.719000,-1.475000,-3.085000,-39.420000,192.366000,-114.763000,29.66
3.298706,0.063000,-2.658000,-3.696000,7.756000,75.603000,-29.740000,29.57
3.308538,1.469000,-2.517000,-4.000000,-86.000000,-96.351000,-11.893000,29.66
3.318697,-1.107000,-1.913000,-1.817000,-157.359000,-164.901000,-24.031000,29.61
3.328368,-0.655000,-1.098000,-1.839000,-164.000000,-190.840000,-39.252000,29.61
3.338379,-0.148000,-0.562000,-2.093000,-119.115000,-246.473000,-37.725000,29.66
3.348323,-0.231000,-0.557000,-1.809000,-52.641000,-273.649000,-37.664000,29.75
3.358342,-0.156000,-0.737000,-1.507000,-11.893000,-302.504000,-48.824000,29.71
3.368408,-0.080000,-0.676000,-1.038000,8.519000,-317.481000,-64.733000,29.71
3.378437,-0.038000,-0.541000,-0.866000,34.275000,-309.649000,-70.366000,29.57
3.388403,0.192000,-0.514000,-0.815000,71.985000,-303.145000,-58.107000,29.66
3.398411,0.549000,-0.682000,-0.865000,101.695000,-299.664000,-40.458000,29.71
3.408429,0.839000,-0.887000,-0.897000,111.420000,-299.695000,-17.664000,29.71
3.418516,0.855000,-0.972000,-0.796000,102.366000,-296.015000,7.573000,29.66
3.428451,0.827000,-0.916000,-0.760000,97.969000,-275.634000,38.687000,29.66
3.438618,0.940000,-0.795000,-0.822000,100.351000,-260.198000,79.466000,29.61
3.448525,1.044000,-0.697000,-0.842000,104.092000,-243.359000,123.450000,29.61
3.458652,1.176000,-0.509000,-0.947000,107.588000,-231.786000,160.931000,29.57
3.468688,1.147000,-0.131000,-1.012000,113.542000,-220.382000,187.603000,29.57
3.478768,0.987000,0.456000,-1.043000,134.916000,-205.450000,198.595000,29.61
3.488677,0.911000,0.784000,-1.258000,157.023000,-194.641000,183.084000,29.61
3.498625,1.015000,0.883000,-1.446000,163.954000,-196.260000,147.939000,29.66
3.508622,1.261000,0.862000,-1.586000,153.160000,-215.695000,96.107000,29.66
3.518528,1.589000,0.831000,-1.824000,140.076000,-229.069000,48.260000,29.61
3.528593,2.171000,0.199000,-1.419000,149.878000,-291.679000,14.061000,29.71
3.538672,1.963000,0.428000,-1.096000,158.962000,-226.794000,1.191000,29.66
3.548628,2.087000,0.167000,-0.929000,161.221000,-241.725000,7.099000,29.57
3.558706,2.259000,-0.005000,-0.794000,150.611000,-249.832000,23.634000,29.57
3.568734,2.253000,0.045000,-0.651000,137.069000,-225.878000,43.664000,29.71
3.578479,2.250000,0.245000,-0.538000,131.282000,-199.695000,60.916000,29.61
3.588605,2.198000,0.497000,-0.395000,134.672000,-172.321000,72.977000,29.66
3.598687,2.151000,0.621000,-0.247000,142.153000,-146.183000,83.298000,29.57
3.608731,2.183000,0.688000,-0.147000,156.321000,-115.557000,100.275000,29.61
3.618746,2.331000,0.661000,-0.080000,161.053000,-87.206000,121.405000,29.61
3.628638,2.315000,0.647000,0.070000,144.870000,-62.885000,134.916000,29.57
3.638552,2.311000,0.793000,0.339000,109.344000,-35.511000,133.374000,29.66
3.648641,2.216000,0.954000,0.441000,56.748000,-11.802000,109.191000,29.71
3.658636,2.388000,0.893000,0.530000,-33.237000,-6.718000,83.038000,29.57
3.668569,2.316000,1.242000,0.222000,-47.038000,35.420000,52.992000,29.75
3.678704,2.184000,1.081000,0.168000,-58.855000,21.939000,41.176000,29.66
3.688636,-0.010000,0.061000,0.571000,-35.710000,21.069000,52.992000,29.52
3.698618,1.028000,0.837000,0.517000,-130.153000,90.473000,2.137000,29.71
3.708722,0.633000,0.372000,-1.548000,-55.786000,127.282000,0.626000,29.57
3.718728,-0.000000,-0.233000,-2.065000,-76.107000,10.840000,-20.305000,29.57
3.728669,-0.811000,-0.246000,-0.631000,-58.733000,50.687000,-57.267000,29.61
3.738593,-0.973000,0.328000,-0.221000,-31.191000,87.954000,-88.458000,29.71
3.748643,0.418000,0.347000,-0.837000,-16.214000,175.267000,-80.290000,29.66
3.758697,1.562000,0.460000,-2.348000,12.000000,169.176000,-79.267000,29.66
3.768654,1.030000,0.488000,-1.318000,-4.580000,197.130000,-74.962000,29.71
3.778612,0.939000,0.190000,-1.634000,54.458000,149.389000,-89.313000,29.71
3.788732,1.160000,-0.665000,-1.416000,48.992000,119.282000,-76.458000,29.66
3.798683,1.015000,-1.023000,-0.776000,30.214000,99.160000,-53.069000,29.57
3.808680,0.945000,-1.041000,-0.791000,0.198000,98.855000,-45.328000,29.71
3.818726,0.859000,-0.701000,-0.831000,-19.725000,79.969000,-38.305000,29.61
3.828662,0.880000,-0.617000,-0.915000,-32.489000,57.298000,-34.824000,29.66
3.838740,0.641000,-0.633000,-0.748000,-45.359000,36.244000,-32.977000,29.66
3.848645,0.472000,-0.594000,-0.710000,-59.160000,29.603000,-36.305000,29.57
3.858656,0.365000,-0.449000,-0.762000,-80.931000,23.008000,-44.962000,29.61
3.868667,0.343000,-0.451000,-0.779000,-101.542000,34.061000,-53.511000,29.66
3.878497,0.556000,-0.453000,-0.978000,-105.832000,42.931000,-54.519000,29.66
3.888747,0.630000,-0.127000,-1.139000,-90.107000,43.511000,-46.550000,29.57
3.898646,0.649000,-0.074000,-1.084000,-64.641000,40.000000,-34.947000,29.61
3.908668,0.640000,-0.105000,-0.994000,-38.260000,35.542000,-23.435000,29.71
3.918514,0.548000,-0.284000,-0.861000,-27.664000,39.221000,-20.580000,29.66
3.928578,0.532000,-0.307000,-0.836000,-25.176000,38.382000,-21.817000,29.57
3.938521,0.573000,-0.322000,-0.824000,-24.580000,38.427000,-22.580000,29.61
3.948550,0.560000,-0.285000,-0.811000,-24.015000,33.435000,-24.122000,29.52
3.958716,0.568000,-0.270000,-0.864000,-24.641000,30.351000,-26.336000,29.66
3.968501,0.572000,-0.297000,-0.790000,-25.588000,21.176000,-28.779000,29.57
3.978421,0.562000,-0.242000,-0.835000,-29.481000,18.305000,-31.435000,29.71
3.988663,0.543000,-0.266000,-0.811000,-30.809000,15.847000,-33.191000,29.71
3.998679,-0.001000,-0.075000,-0.888000,-24.092000,16.382000,-43.023000,29.66
4.008683,0.455000,-0.193000,-0.634000,-25.038000,18.840000,-29.359000,29.57
4.018614,0.531000,-0.162000,-0.862000,-30.565000,21.603000,-31.450000,29.61
4.028557,0.591000,-0.225000,-0.814000,-29.115000,23.053000,-31.924000,29.66
4.038682,0.368000,0.301000,-0.956000,-14.794000,24.046000,-42.290000,29.57
4.048400,0.528000,-0.119000,-0.810000,-20.779000,30.321000,-32.061000,29.66
4.058665,0.532000,-0.163000,-0.789000,-18.794000,34.809000,-31.679000,29.61
4.068557,0.532000,-0.246000,-0.788000,-22.977000,41.069000,-31.053000,29.61
4.078557,0.567000,-0.191000,-0.827000,-23.069000,48.977000,-31.985000,29.66
4.088430,0.580000,-0.128000,-0.817000,-24.580000,59.328000,-29.420000,29.66
4.098404,0.573000,-0.130000,-0.843000,-22.656000,69.023000,-25.466000,29.61
4.108469,0.534000,-0.124000,-0.842000,-21.298000,82.595000,-21.939000,29.61
4.118485,0.563000,-0.134000,-0.841000,-20.840000,96.947000,-19.969000,29.66
4.128311,0.568000,-0.136000,-0.834000,-22.534000,116.885000,-16.931000,29.66
4.138651,0.589000,-0.163000,-0.796000,-23.725000,142.183000,-15.252000,29.61
4.148568,0.530000,-0.106000,-0.802000,-25.802000,166.840000,-16.809000,29.61
4.158670,0.469000,-0.069000,-0.768000,-29.130000,196.931000,-21.496000,29.66
4.168544,0.570000,-0.136000,-0.796000,-13.176000,207.252000,-32.427000,29.66
4.178382,0.568000,-0.135000,-0.799000,-12.916000,226.290000,-37.573000,29.57
4.188464,0.543000,-0.182000,-0.749000,-15.924000,246.382000,-47.908000,29.52
4.198433,0.612000,-0.137000,-0.739000,-20.580000,269.252000,-60.534000,29.71
4.208607,0.557000,-0.098000,-0.805000,-23.557000,293.740000,-76.046000,29.66
4.218650,0.761000,-0.234000,-0.859000,-42.672000,314.015000,-93.160000,29.57
4.228466,1.009000,-0.209000,-0.949000,-52.046000,344.519000,-106.061000,29.61
4.238675,1.170000,-0.318000,-1.019000,-51.328000,377.725000,-114.870000,29.57
4.248620,1.421000,-0.218000,-1.275000,-38.550000,425.893000,-111.313000,29.66
4.258617,1.803000,-0.122000,-1.377000,1.786000,470.412000,-100.458000,29.66
4.268553,2.605000,-0.481000,-1.676000,59.130000,425.969000,-88.656000,29.61
4.278515,2.371000,-0.313000,-1.736000,79.221000,400.198000,-100.763000,29.61
4.288636,2.470000,-0.397000,-2.149000,29.863000,365.466000,-129.069000,29.57
4.298655,1.312000,-0.619000,-1.961000,-31.679000,325.695000,-156.229000,29.66
4.308627,1.052000,-1.168000,-2.595000,-72.214000,254.504000,-145.634000,29.57
4.318570,-1.953000,-2.188000,-3.481000,-34.779000,92.763000,-73.099000,29.52
4.328452,2.911000,-2.811000,-4.000000,-71.145000,-49.023000,-10.748000,29.61
4.338545,-0.261000,-2.393000,-2.560000,-157.466000,-203.542000,-0.809000,29.66
4.348483,-1.312000,-1.801000,-1.131000,-168.763000,-146.504000,33.115000,29.66
4.358604,-0.375000,-1.317000,-1.469000,-161.557000,-186.000000,66.321000,29.61
4.368652,-0.243000,-1.233000,-1.538000,-123.603000,-188.214000,94.489000,29.52
4.378562,0.235000,-1.262000,-1.924000,-94.748000,-215.618000,112.336000,29.57
4.388467,0.643000,-1.038000,-2.038000,-85.374000,-270.061000,115.099000,29.66
4.398714,0.642000,-0.664000,-1.772000,-74.718000,-321.145000,99.939000,29.61
4.408715,0.713000,-0.267000,-1.534000,-52.198000,-359.588000,67.954000,29.61
4.418578,0.867000,-0.036000,-1.307000,-19.481000,-389.954000,29.252000,29.66
4.428783,0.939000,0.057000,-1.099000,20.183000,-410.885000,-10.107000,29.66
4.438581,1.022000,0.111000,-1.041000,65.573000,-422.290000,-43.359000,29.61
4.448798,1.184000,0.096000,-1.053000,117.450000,-429.954000,-65.542000,29.61
4.458720,1.324000,-0.069000,-0.858000,153.130000,-429.252000,-75.786000,29.61
4.468577,1.216000,-0.317000,-0.594000,174.229000,-395.389000,-71.878000,29.66
4.478745,1.291000,-0.426000,-0.635000,178.427000,-383.084000,-58.885000,29.66
4.488732,1.329000,-0.491000,-0.615000,185.740000,-355.145000,-34.534000,29.61
4.498543,1.409000,-0.518000,-0.729000,196.153000,-332.443000,-0.534000,29.66
4.508681,1.488000,-0.520000,-0.716000,198.672000,-292.366000,40.550000,29.57
4.518666,1.520000,-0.583000,-0.718000,195.023000,-257.557000,77.420000,29.66
4.528548,1.664000,-0.567000,-0.771000,180.885000,-221.221000,115.466000,29.61
4.538678,1.840000,-0.488000,-0.850000,159.191000,-190.290000,153.282000,29.61
4.548737,2.008000,-0.202000,-0.945000,144.275000,-166.580000,183.771000,29.66
4.558527,2.173000,0.198000,-0.995000,134.336000,-148.336000,204.580000,29.57
4.568499,2.249000,0.574000,-0.942000,130.824000,-133.481000,214.061000,29.66
4.578384,2.383000,0.779000,-0.916000,119.328000,-124.168000,208.321000,29.71
4.588324,2.149000,0.487000,-0.405000,88.244000,-83.191000,200.763000,29.61
4.598549,2.670000,0.897000,-0.392000,53.053000,-99.420000,169.603000,29.66
4.608632,3.104000,1.263000,-0.560000,48.489000,-123.237000,139.206000,29.57
4.618629,3.042000,1.525000,0.274000,93.160000,-161.160000,104.718000,29.52
4.628481,2.750000,1.280000,0.496000,84.336000,-144.885000,83.832000,29.61
4.638320,2.654000,1.212000,0.999000,94.824000,-114.718000,61.282000,29.57
4.648244,2.371000,1.059000,1.314000,74.580000,-63.634000,44.366000,29.57
4.658227,2.636000,0.848000,1.188000,22.443000,-4.183000,37.374000,29.61
4.668215,2.784000,0.846000,1.310000,-55.206000,47.191000,32.733000,29.71
4.678210,2.866000,1.290000,1.639000,-110.473000,94.840000,15.527000,29.61
4.688138,0.064000,0.884000,0.515000,-77.450000,170.840000,3.191000,29.66
4.698137,1.555000,0.155000,-2.542000,-74.641000,147.985000,-14.550000,29.66
4.708154,-0.272000,-0.146000,-2.134000,-183.924000,177.527000,-0.015000,29.61
4.718232,-0.471000,0.381000,-1.003000,-29.374000,55.634000,-75.176000,29.61
4.728163,-0.201000,0.603000,-0.127000,3.496000,120.855000,-122.031000,29.57
4.738179,1.594000,-0.204000,-1.772000,13.389000,174.977000,-105.206000,29.57
4.751875,1.636000,-0.076000,-1.600000,24.458000,171.756000,-73.939000,29.71
4.758129,1.128000,-0.106000,-1.316000,22.779000,128.992000,-87.374000,29.57
4.775512,1.317000,-0.744000,-1.307000,12.687000,63.176000,-85.298000,29.66
4.778269,0.918000,-0.625000,-0.884000,-23.740000,46.534000,-63.420000,29.66
4.788807,0.729000,-0.359000,-0.928000,-22.031000,38.534000,-45.725000,29.71
4.799928,0.739000,-0.095000,-1.119000,-25.252000,20.992000,-38.885000,29.61
4.808917,0.787000,-0.382000,-0.997000,-23.908000,3.267000,-30.748000,29.66
4.819042,0.695000,-0.569000,-0.844000,-27.344000,13.832000,-21.328000,29.66
4.828984,0.577000,-0.427000,-0.901000,-30.137000,23.191000,-18.718000,29.66
4.838862,0.558000,-0.422000,-0.872000,-37.176000,29.405000,-17.802000,29.61
4.848776,0.514000,-0.434000,-0.821000,-41.420000,22.809000,-19.786000,29.61
4.859067,0.425000,-0.474000,-0.800000,-43.435000,18.107000,-23.084000,29.66
4.869120,0.403000,-0.450000,-0.778000,-52.198000,22.473000,-27.679000,29.66
4.878226,0.450000,-0.427000,-0.802000,-60.718000,21.344000,-32.061000,29.61
4.888560,0.465000,-0.358000,-0.819000,-64.947000,19.069000,-35.740000,29.71
4.898940,0.469000,-0.316000,-0.819000,-67.099000,14.748000,-38.565000,29.66
4.908620,0.503000,-0.295000,-0.834000,-66.305000,14.244000,-40.000000,29.66
4.926297,0.576000,-0.242000,-0.973000,-60.702000,17.420000,-38.229000,29.61
4.928560,0.491000,-0.192000,-0.853000,-50.580000,9.160000,-37.237000,29.61
4.939559,0.482000,-0.227000,-0.839000,-44.916000,11.969000,-36.702000,29.66
4.949783,0.499000,-0.190000,-0.854000,-43.389000,17.954000,-36.061000,29.66
4.958182,0.549000,-0.104000,-0.872000,-36.550000,15.695000,-34.260000,29.57
4.968157,0.551000,-0.147000,-0.872000,-29.969000,11.267000,-33.038000,29.61
4.978292,0.521000,-0.184000,-0.841000,-28.366000,10.076000,-32.321000,29.61
4.988243,0.510000,-0.168000,-0.848000,-26.092000,9.939000,-31.664000,29.57
4.998261,0.531000,-0.109000,-0.851000,-24.962000,13.557000,-28.794000,29.66
5.008299,0.544000,-0.142000,-0.858000,-23.420000,14.137000,-27.160000,29.71
5.018325,0.538000,-0.100000,-0.885000,-22.672000,18.305000,-26.244000,29.66
5.028282,0.543000,-0.163000,-0.844000,-20.305000,19.786000,-25.893000,29.57
5.038315,0.490000,-0.156000,-0.845000,-20.305000,24.122000,-23.908000,29.57
5.048291,0.540000,-0.111000,-0.847000,-19.115000,30.168000,-22.504000,29.61
5.058415,0.534000,-0.103000,-0.826000,-15.603000,31.924000,-21.603000,29.61
5.068514,0.537000,-0.131000,-0.844000,-14.473000,37.023000,-22.214000,29.57
5.078523,0.410000,-0.380000,-0.735000,-8.321000,39.359000,-25.267000,29.66
5.088365,0.560000,-0.009000,-0.918000,-16.565000,56.427000,-25.817000,29.61
5.098448,0.530000,-0.188000,-0.833000,-18.809000,57.786000,-25.618000,29.61
5.108484,0.511000,-0.173000,-0.870000,-21.893000,75.008000,-25.359000,29.57
5.118468,0.544000,-0.154000,-0.894000,-27.298000,91.481000,-24.122000,29.66
5.128348,0.566000,-0.234000,-0.867000,-35.084000,112.565000,-25.359000,29.61
5.138568,0.571000,-0.227000,-0.875000,-44.244000,133.969000,-29.145000,29.61
5.148565,0.567000,-0.155000,-0.830000,-49.252000,159.588000,-33.649000,29.61
5.158633,0.497000,-0.057000,-0.860000,-50.916000,182.870000,-41.298000,29.57
5.168542,0.382000,-0.078000,-0.872000,-49.145000,202.733000,-54.565000,29.75
5.178711,0.467000,-0.067000,-0.906000,-52.198000,227.557000,-64.504000,29.61
5.188506,0.512000,0.002000,-0.917000,-54.214000,258.626000,-77.832000,29.61
5.198626,0.522000,0.061000,-0.911000,-48.870000,292.626000,-94.962000,29.57
5.208308,0.514000,-0.029000,-0.809000,-65.649000,332.000000,-122.473000,29.66
5.218545,0.663000,-0.102000,-0.861000,-85.496000,393.878000,-155.618000,29.61
5.228422,1.022000,-0.419000,-1.141000,-114.214000,413.557000,-189.115000,29.66
5.238393,1.211000,-0.432000,-1.154000,-134.382000,444.092000,-209.282000,29.57
5.248382,1.997000,-0.246000,-1.375000,-143.435000,500.015000,-210.443000,29.66
5.258502,2.516000,-0.340000,-1.621000,-97.450000,500.260000,-204.000000,29.61
5.268684,3.165000,-0.638000,-2.205000,41.527000,500.260000,-179.374000,29.61
5.278423,2.630000,-0.392000,-1.783000,55.176000,374.031000,-190.183000,29.57
5.288280,1.915000,-0.799000,-2.189000,13.359000,284.992000,-208.260000,29.66
5.298396,1.624000,-0.876000,-3.073000,-6.962000,228.183000,-206.198000,29.61
5.308709,-1.944000,-1.094000,-3.409000,93.221000,-14.626000,-113.527000,29.52
5.318681,3.393000,-2.500000,-4.000000,110.061000,30.962000,-15.008000,29.71
5.328695,1.680000,-2.991000,-1.955000,24.916000,-500.275000,-9.832000,29.57
5.338644,-0.898000,-2.268000,-0.438000,-76.122000,-216.015000,36.351000,29.57
5.348619,-0.200000,-1.621000,-0.869000,-131.481000,-228.901000,62.412000,29.61
5.358677,-0.112000,-1.205000,-1.062000,-115.588000,-230.916000,105.740000,29.61
5.368667,-0.016000,-1.142000,-1.260000,-79.740000,-226.718000,141.908000,29.66
5.378667,0.249000,-0.853000,-1.307000,-52.015000,-245.756000,161.191000,29.66
5.388751,0.309000,-0.781000,-1.153000,-40.962000,-263.740000,162.107000,29.61
5.398593,0.449000,-0.504000,-1.083000,-30.992000,-282.015000,149.603000,29.71
5.408733,0.620000,-0.179000,-1.030000,-9.832000,-290.397000,132.489000,29.66
5.418765,0.743000,0.026000,-1.022000,24.229000,-290.107000,112.702000,29.66
5.428609,0.770000,0.108000,-0.997000,62.687000,-291.069000,89.771000,29.61
5.438448,0.838000,0.126000,-1.009000,102.809000,-302.061000,66.611000,29.61
5.448322,0.916000,0.091000,-1.020000,131.267000,-307.710000,42.076000,29.66
5.458394,1.001000,0.052000,-1.015000,152.260000,-309.313000,22.718000,29.66
5.468366,1.121000,0.041000,-0.973000,171.023000,-305.328000,10.504000,29.61
5.478397,1.236000,-0.041000,-1.045000,176.992000,-282.504000,12.473000,29.71
5.488324,1.271000,-0.148000,-1.006000,205.756000,-280.901000,18.214000,29.66
5.498405,1.219000,-0.076000,-0.873000,204.626000,-280.427000,29.725000,29.57
5.508430,1.597000,-0.394000,-1.148000,220.794000,-292.550000,54.198000,29.66
5.518498,1.525000,-0.523000,-0.870000,218.687000,-277.634000,79.282000,29.71
5.528490,1.617000,-0.695000,-0.685000,207.969000,-255.740000,108.153000,29.61
5.538455,1.664000,-0.565000,-0.709000,191.985000,-189.267000,151.954000,29.66
5.548460,1.800000,-0.278000,-0.791000,192.672000,-145.771000,198.519000,29.57
5.558386,1.921000,0.040000,-0.886000,206.611000,-107.511000,245.359000,29.61
5.568520,2.018000,0.455000,-0.975000,221.664000,-74.183000,284.519000,29.52
5.578485,2.292000,0.635000,-1.111000,210.458000,-51.649000,302.824000,29.66
5.588670,2.721000,0.680000,-1.257000,175.130000,-53.618000,305.817000,29.66
5.598646,3.046000,0.815000,-1.170000,134.443000,-52.855000,302.031000,29.71
5.608691,3.007000,1.110000,-0.658000,98.122000,-43.939000,280.855000,29.52
5.618634,2.899000,1.363000,-0.074000,89.221000,-103.573000,228.046000,29.66
5.628545,2.691000,1.554000,0.386000,77.542000,-115.237000,166.168000,29.57
5.638437,2.681000,1.624000,0.638000,40.198000,-126.122000,118.550000,29.71
5.648480,2.657000,1.616000,0.630000,62.534000,-86.779000,62.015000,29.66
5.658204,2.574000,1.551000,0.756000,58.931000,-28.702000,21.282000,29.57
5.668196,1.958000,0.739000,1.138000,-10.687000,35.069000,3.817000,29.57
5.678132,2.601000,1.245000,1.247000,-130.046000,42.275000,-58.504000,29.61
5.688225,2.445000,1.814000,0.636000,-182.809000,70.565000,-115.084000,29.61
5.698143,0.801000,0.453000,-1.701000,-96.275000,67.710000,-71.450000,29.75
5.708204,0.153000,-1.109000,-2.545000,-72.443000,46.076000,-32.733000,29.66
5.718230,-0.803000,-0.970000,-0.693000,-38.702000,25.603000,-48.916000,29.57
5.728243,-0.729000,0.017000,-0.227000,-83.313000,103.863000,-95.893000,29.61
5.738234,0.841000,0.161000,-0.846000,-29.588000,168.290000,-95.206000,29.71
5.748200,1.885000,0.555000,-2.296000,-0.107000,187.435000,-68.519000,29.66
5.758210,1.177000,0.801000,-1.967000,28.351000,132.458000,-82.809000,29.57
5.768376,1.408000,-0.395000,-1.701000,16.107000,103.282000,-92.641000,29.61
5.778268,1.183000,-1.115000,-0.924000,-5.679000,72.885000,-62.504000,29.61
5.788260,0.764000,-0.730000,-0.756000,-20.580000,63.924000,-44.550000,29.66
5.798273,0.611000,-0.194000,-1.092000,-21.023000,43.328000,-43.023000,29.66
5.808299,0.718000,-0.475000,-0.894000,-29.557000,29.679000,-38.000000,29.61
5.818473,0.739000,-0.806000,-0.640000,-32.718000,18.137000,-32.397000,29.61
5.828397,0.527000,-0.649000,-0.686000,-42.198000,25.649000,-31.466000,29.66
5.838368,0.498000,-0.496000,-0.789000,-59.969000,45.542000,-33.206000,29.57
5.848327,0.544000,-0.474000,-0.769000,-69.847000,41.634000,-34.870000,29.61
5.858402,0.492000,-0.374000,-0.880000,-74.901000,27.573000,-38.672000,29.66
5.868412,0.476000,-0.337000,-0.884000,-78.321000,29.649000,-39.023000,29.66
5.878464,0.503000,-0.404000,-0.854000,-76.092000,29.664000,-38.550000,29.57
5.888437,0.538000,-0.298000,-0.930000,-70.427000,33.099000,-36.198000,29.61
5.898493,0.575000,-0.281000,-0.897000,-59.008000,26.824000,-32.977000,29.61
5.908545,0.619000,-0.319000,-0.936000,-50.595000,22.672000,-30.550000,29.57
5.918644,0.531000,-0.259000,-0.829000,-43.679000,14.229000,-29.527000,29.57
5.928501,0.502000,-0.314000,-0.795000,-44.107000,12.137000,-31.527000,29.66
5.938662,0.538000,-0.341000,-0.810000,-46.977000,17.389000,-34.076000,29.52
5.948588,0.509000,-0.333000,-0.792000,-47.160000,11.099000,-37.115000,29.71
5.958558,0.551000,-0.334000,-0.847000,-45.511000,14.076000,-37.069000,29.66
5.968635,0.535000,-0.266000,-0.876000,-41.008000,10.504000,-36.763000,29.57
5.978398,0.491000,-0.257000,-0.823000,-38.382000,7.664000,-38.412000,29.71
5.988596,0.561000,-0.263000,-0.840000,-40.061000,14.031000,-39.649000,29.61
5.998550,0.586000,-0.191000,-0.857000,-37.252000,16.962000,-37.740000,29.66
6.008595,0.517000,-0.168000,-0.843000,-32.626000,18.031000,-33.939000,29.66
6.018601,0.571000,-0.103000,-0.885000,-28.473000,24.672000,-30.198000,29.61
6.028530,0.569000,-0.156000,-0.841000,-24.901000,26.962000,-27.802000,29.61
6.038638,0.574000,-0.154000,-0.834000,-24.321000,31.786000,-27.069000,29.57
6.048525,0.593000,-0.519000,-0.732000,-21.588000,29.191000,-25.206000,29.57
6.058654,0.597000,-0.057000,-0.873000,-14.489000,36.595000,-29.511000,29.61
6.068657,0.556000,-0.174000,-0.811000,-16.611000,42.595000,-26.641000,29.61
6.078492,0.577000,-0.142000,-0.819000,-14.443000,46.336000,-24.901000,29.57
6.088720,0.528000,-0.060000,-0.822000,-13.435000,58.427000,-20.977000,29.66
6.098646,0.559000,-0.115000,-0.812000,-10.885000,65.511000,-14.916000,29.66
6.108668,0.540000,-0.123000,-0.835000,-9.221000,77.298000,-11.710000,29.61
6.118651,0.552000,-0.198000,-0.844000,-10.336000,90.275000,-11.237000,29.66
6.128654,0.563000,-0.198000,-0.838000,-13.267000,107.893000,-12.183000,29.66
6.138612,0.585000,-0.192000,-0.813000,-16.779000,125.511000,-14.412000,29.66
6.148643,0.569000,-0.156000,-0.792000,-19.908000,146.611000,-18.977000,29.61
6.158721,0.526000,-0.126000,-0.780000,-19.267000,166.718000,-25.298000,29.61
6.168584,0.535000,-0.108000,-0.761000,-19.527000,184.580000,-30.595000,29.66
6.178579,0.589000,-0.136000,-0.802000,-19.557000,202.168000,-34.519000,29.66
6.188563,0.550000,-0.148000,-0.798000,-20.901000,220.122000,-40.198000,29.52
6.198429,0.642000,-0.145000,-0.786000,-25.969000,245.786000,-51.374000,29.71
6.208327,0.572000,-0.182000,-0.858000,-29.023000,272.061000,-67.282000,29.66
6.218359,0.658000,-0.386000,-0.874000,-42.153000,305.985000,-92.550000,29.66
6.228355,0.979000,-0.543000,-1.135000,-43.374000,340.366000,-118.504000,29.66
6.238383,1.123000,-0.472000,-1.126000,-34.718000,371.740000,-136.260000,29.61
6.248393,1.651000,-0.535000,-1.532000,-3.588000,405.786000,-140.153000,29.61
6.258424,2.174000,-0.475000,-1.682000,28.015000,429.740000,-138.824000,29.57
6.268496,2.531000,-0.137000,-1.822000,39.084000,431.511000,-156.489000,29.66
6.278389,2.417000,-0.453000,-2.135000,34.137000,386.321000,-188.916000,29.61
6.288381,2.014000,-0.768000,-2.203000,-10.534000,323.511000,-213.603000,29.61
6.298339,0.924000,-1.424000,-2.161000,-42.626000,232.565000,-216.718000,29.66
6.308291,-0.863000,-2.011000,-2.006000,-12.290000,72.107000,-154.794000,29.66
6.318177,1.400000,-1.871000,-4.000000,27.221000,137.985000,-48.947000,29.61
6.328217,1.566000,-2.349000,-3.303000,-35.191000,-69.481000,-45.237000,29.66
6.338185,-0.897000,-1.808000,-1.669000,-69.496000,-161.221000,-27.466000,29.57
6.348173,-0.414000,-1.068000,-1.462000,-65.206000,-154.214000,-19.618000,29.66
6.358231,-0.199000,-0.794000,-1.431000,-19.023000,-185.695000,3.557000,29.61
6.368200,-0.280000,-0.814000,-1.218000,31.557000,-220.626000,23.878000,29.61
6.378255,-0.330000,-1.083000,-1.047000,7.344000,-119.237000,46.702000,29.66
6.388290,0.075000,-0.928000,-1.098000,21.954000,-219.634000,40.214000,29.66
6.398295,0.194000,-0.791000,-1.129000,5.435000,-224.168000,39.771000,29.66
6.408204,0.401000,-0.559000,-1.158000,8.748000,-249.405000,42.565000,29.61
6.418173,0.549000,-0.357000,-1.132000,31.130000,-270.153000,47.802000,29.61
6.428787,0.622000,-0.246000,-1.023000,60.748000,-287.435000,52.519000,29.57
6.438217,0.692000,-0.261000,-0.930000,82.275000,-294.351000,54.183000,29.57
6.448164,0.761000,-0.228000,-0.875000,93.817000,-295.038000,53.374000,29.52
6.458174,0.810000,-0.176000,-0.892000,103.420000,-292.351000,52.046000,29.71
6.470910,0.890000,-0.088000,-0.904000,118.931000,-290.260000,51.557000,29.57
6.481559,0.969000,-0.041000,-0.919000,139.099000,-287.221000,52.641000,29.57
6.488182,1.059000,-0.051000,-0.958000,152.687000,-276.061000,55.481000,29.61
6.502591,1.126000,-0.076000,-0.942000,168.427000,-261.893000,57.481000,29.61
6.508998,1.233000,-0.198000,-0.967000,180.473000,-261.282000,63.664000,29.57
6.519084,1.404000,-0.337000,-0.997000,186.260000,-255.344000,78.885000,29.66
6.530533,1.594000,-0.496000,-1.138000,184.595000,-251.206000,98.962000,29.71
6.539035,1.816000,-0.592000,-1.201000,175.557000,-236.916000,126.260000,29.66
6.548793,2.002000,-0.573000,-1.148000,163.359000,-226.458000,157.908000,29.66
6.559069,2.072000,-0.370000,-1.011000,153.008000,-212.870000,188.840000,29.66
6.569091,2.091000,-0.066000,-0.896000,152.153000,-198.626000,212.916000,29.52
6.579027,2.115000,0.292000,-0.862000,154.168000,-175.878000,229.710000,29.61
6.589003,2.200000,0.589000,-0.931000,162.107000,-159.084000,240.870000,29.57
6.599129,2.390000,0.875000,-0.998000,167.145000,-139.832000,248.794000,29.57
6.609084,2.623000,1.013000,-0.914000,163.588000,-133.618000,253.832000,29.57
6.619112,2.822000,1.047000,-0.652000,141.878000,-137.649000,246.046000,29.52
6.628756,2.890000,1.131000,-0.110000,102.275000,-146.550000,213.145000,29.71
6.639252,2.772000,1.264000,0.432000,48.504000,-143.542000,159.221000,29.75
6.648828,2.653000,1.660000,0.739000,8.779000,-98.275000,107.710000,29.66
6.658921,2.726000,1.762000,0.813000,-19.359000,-60.351000,75.176000,29.61
6.668942,2.725000,1.593000,0.816000,-7.038000,-24.397000,52.992000,29.61
6.678736,2.599000,1.314000,0.796000,-37.221000,8.641000,47.527000,29.66
6.688952,2.875000,1.737000,1.274000,-138.931000,72.229000,-25.725000,29.66
6.698699,0.661000,1.434000,0.336000,-170.046000,95.679000,-62.000000,29.61
6.708939,1.627000,0.347000,-3.025000,-123.145000,112.137000,-77.634000,29.61
6.718741,0.088000,-0.566000,-2.918000,-122.687000,-5.496000,-81.420000,29.57
6.728746,-0.784000,-0.577000,-0.131000,-114.412000,7.511000,-116.427000,29.57
6.738820,-0.767000,-0.148000,0.678000,-119.359000,136.641000,-147.359000,29.61
6.748730,1.535000,-0.062000,-1.643000,-65.298000,175.634000,-103.084000,29.71
6.758783,1.407000,0.503000,-1.919000,-31.374000,150.382000,-79.679000,29.57
6.768710,0.591000,0.826000,-1.347000,-6.321000,160.901000,-97.466000,29.66
6.778668,1.109000,0.246000,-1.552000,35.053000,110.611000,-89.664000,29.61
6.788726,1.188000,-0.425000,-1.213000,25.511000,124.183000,-70.000000,29.71
6.798752,1.186000,-0.903000,-1.081000,16.855000,106.947000,-42.366000,29.66
6.808696,0.825000,-0.556000,-1.035000,3.771000,99.618000,-35.099000,29.57
6.818727,0.795000,-0.303000,-1.044000,-0.931000,90.580000,-29.496000,29.57
6.828865,0.888000,-0.499000,-0.995000,-4.397000,75.527000,-21.969000,29.61
6.838688,0.727000,-0.609000,-0.844000,-9.344000,61.466000,-16.779000,29.61
6.848604,0.578000,-0.524000,-0.854000,-15.450000,50.947000,-17.542000,29.57
6.858663,0.598000,-0.452000,-0.873000,-20.595000,36.916000,-19.160000,29.47
6.868650,0.516000,-0.427000,-0.872000,-31.145000,29.695000,-21.053000,29.61
6.878553,0.445000,-0.340000,-0.836000,-44.366000,29.359000,-24.321000,29.61
6.888602,0.496000,-0.260000,-0.919000,-51.450000,28.840000,-26.962000,29.57
6.898757,0.560000,-0.251000,-0.911000,-48.519000,30.992000,-24.534000,29.57
6.908752,0.579000,-0.181000,-0.953000,-39.481000,29.542000,-20.168000,29.52
6.918588,0.567000,-0.137000,-0.937000,-25.924000,25.191000,-15.863000,29.61
6.928612,0.559000,-0.261000,-0.867000,-19.115000,24.611000,-14.473000,29.66
6.938713,0.517000,-0.293000,-0.797000,-17.176000,27.710000,-15.053000,29.66
6.948643,0.505000,-0.323000,-0.804000,-17.344000,22.336000,-18.473000,29.61
6.958651,0.528000,-0.351000,-0.772000,-21.847000,21.679000,-22.550000,29.61
6.968624,0.496000,-0.350000,-0.756000,-28.901000,16.687000,-28.366000,29.57
6.978670,0.518000,-0.359000,-0.795000,-35.603000,13.252000,-33.863000,29.75
6.988693,0.533000,-0.286000,-0.787000,-38.794000,10.366000,-37.481000,29.66
6.998641,0.550000,-0.236000,-0.790000,-37.313000,10.214000,-37.786000,29.61
7.008660,0.558000,-0.175000,-0.839000,-37.206000,11.282000,-37.282000,29.66
7.018556,0.558000,-0.190000,-0.859000,-35.771000,12.092000,-36.366000,29.57
7.028620,0.558000,-0.158000,-0.855000,-33.573000,12.962000,-34.824000,29.66
7.038718,0.569000,-0.162000,-0.838000,-31.252000,20.122000,-32.214000,29.80
7.048560,0.562000,-0.131000,-0.866000,-28.641000,23.099000,-29.527000,29.61
7.058840,0.572000,-0.138000,-0.839000,-24.885000,26.916000,-27.389000,29.66
7.068599,0.532000,-0.022000,-0.846000,-5.756000,27.954000,-32.046000,29.57
7.078734,0.536000,-0.083000,-0.848000,-19.420000,37.771000,-30.702000,29.71
7.088408,0.512000,-0.325000,-0.773000,-23.023000,43.542000,-30.901000,29.52
7.098346,0.562000,-0.168000,-0.842000,-26.275000,50.031000,-33.359000,29.57
7.108613,0.618000,-0.101000,-0.841000,-28.565000,63.328000,-28.702000,29.66
7.118608,0.545000,-0.134000,-0.841000,-25.374000,71.985000,-26.443000,29.52
7.128579,0.544000,-0.184000,-0.863000,-28.275000,87.756000,-25.115000,29.71
7.138617,0.577000,-0.210000,-0.849000,-32.580000,107.756000,-23.924000,29.52
7.148588,0.615000,-0.178000,-0.846000,-36.870000,129.374000,-25.756000,29.57
7.158614,0.551000,-0.181000,-0.803000,-41.191000,154.397000,-29.405000,29.66
7.168718,0.512000,-0.093000,-0.801000,-43.145000,179.908000,-36.565000,29.61
7.178614,0.529000,-0.064000,-0.828000,-41.725000,200.687000,-43.786000,29.61
7.188648,0.574000,-0.031000,-0.802000,-48.031000,220.351000,-45.145000,29.57
7.198596,0.561000,-0.051000,-0.875000,-41.313000,240.092000,-48.031000,29.66
7.208627,0.639000,-0.063000,-0.859000,-17.710000,263.985000,-60.427000,29.61
7.218697,0.598000,-0.319000,-0.834000,-16.718000,289.084000,-80.321000,29.66
7.228716,0.718000,-0.310000,-0.892000,-9.542000,301.725000,-104.244000,29.57
7.238764,0.913000,-0.429000,-0.960000,10.351000,321.160000,-127.771000,29.57
7.248740,1.102000,-0.484000,-0.863000,0.443000,330.855000,-153.481000,29.71
7.258789,1.370000,-0.380000,-1.030000,-34.244000,359.344000,-164.458000,29.71
7.268822,1.684000,-0.140000,-1.381000,-46.489000,396.458000,-172.076000,29.66
7.278652,2.139000,-0.242000,-1.981000,-20.840000,418.305000,-178.824000,29.57
7.288955,2.330000,-0.389000,-2.014000,-4.153000,378.824000,-202.641000,29.57
7.298776,2.260000,-0.605000,-2.350000,-9.573000,330.656000,-214.366000,29.71
7.308838,1.054000,-0.504000,-2.503000,-3.099000,256.931000,-189.221000,29.71
7.318830,-0.085000,-2.295000,-3.886000,95.374000,124.214000,-104.733000,29.57
7.328724,1.807000,-2.485000,-4.000000,47.267000,-98.153000,-64.198000,29.57
7.338859,-0.198000,-2.467000,-2.407000,-35.740000,-165.908000,-53.908000,29.61
7.348768,-0.357000,-2.089000,-1.237000,-110.656000,-203.573000,-25.160000,29.61
7.358830,-0.126000,-1.492000,-1.128000,-149.420000,-249.908000,-9.176000,29.66
7.368948,-0.165000,-1.231000,-1.130000,-125.802000,-255.237000,30.534000,29.66
7.378695,-0.035000,-1.091000,-1.042000,-85.954000,-250.672000,63.893000,29.75
7.388732,0.127000,-0.988000,-1.067000,-53.038000,-246.137000,92.702000,29.61
7.398789,0.293000,-0.926000,-1.079000,-31.252000,-246.229000,113.893000,29.61
7.409013,0.431000,-0.757000,-0.988000,-15.802000,-253.771000,122.931000,29.66
7.418781,0.556000,-0.482000,-0.984000,0.550000,-256.718000,124.214000,29.57
7.428688,0.643000,-0.270000,-0.919000,23.023000,-257.496000,120.947000,29.61
7.439016,0.733000,-0.179000,-0.989000,45.634000,-245.481000,113.008000,29.61
7.448958,0.816000,-0.174000,-1.100000,65.069000,-243.344000,102.885000,29.57
7.458777,0.929000,-0.209000,-1.173000,79.267000,-254.855000,90.656000,29.66
7.468703,1.024000,-0.204000,-1.223000,89.542000,-264.107000,82.214000,29.61
7.478771,1.110000,-0.170000,-1.190000,101.282000,-272.489000,79.420000,29.66
7.488727,1.168000,-0.094000,-1.125000,113.328000,-273.298000,80.870000,29.66
7.498405,1.203000,-0.089000,-1.103000,124.458000,-268.931000,85.588000,29.57
7.508406,1.262000,-0.080000,-1.080000,132.046000,-264.000000,90.656000,29.61
7.518524,1.283000,-0.063000,-1.136000,136.626000,-261.557000,92.992000,29.71
7.528686,1.342000,-0.103000,-1.154000,142.366000,-264.977000,94.031000,29.66
7.541615,1.374000,-0.076000,-1.111000,149.969000,-266.489000,96.916000,29.66
7.550714,1.466000,-0.113000,-1.115000,152.565000,-250.092000,98.397000,29.66
7.560295,1.622000,-0.118000,-1.079000,152.443000,-232.351000,101.069000,29.71
7.568269,1.760000,-0.075000,-1.004000,149.206000,-206.000000,107.221000,29.71
7.578349,1.950000,-0.011000,-1.004000,150.748000,-188.153000,116.962000,29.66
7.588171,2.185000,0.189000,-1.026000,160.840000,-173.939000,133.389000,29.57
7.598227,2.299000,0.490000,-0.885000,179.679000,-160.733000,151.115000,29.80
7.608230,2.323000,0.563000,-0.710000,183.802000,-121.389000,169.679000,29.61
7.618264,2.508000,0.746000,-0.664000,181.374000,-118.443000,181.298000,29.66
7.628265,2.752000,0.842000,-0.509000,164.229000,-109.527000,187.985000,29.66
7.638216,2.893000,1.039000,-0.026000,150.550000,-120.672000,176.260000,29.61
7.648186,2.760000,1.207000,0.388000,129.695000,-126.183000,147.740000,29.61
7.658281,2.556000,1.438000,0.692000,113.786000,-114.947000,109.802000,29.57
7.668280,2.589000,1.491000,0.776000,91.817000,-75.145000,76.809000,29.57
7.678318,2.609000,1.414000,0.914000,66.870000,-39.985000,53.023000,29.66
7.688323,2.534000,1.169000,0.834000,34.000000,-11.099000,31.191000,29.61
7.698278,2.305000,0.856000,0.660000,-19.206000,31.542000,14.718000,29.61
7.708312,2.326000,0.614000,0.553000,-77.344000,46.168000,9.160000,29.57
7.718502,-0.700000,0.056000,-0.534000,-80.336000,118.870000,6.733000,29.57
7.728504,0.372000,-1.263000,-1.519000,-85.298000,75.282000,9.985000,29.61
7.738396,-1.300000,-1.530000,-1.817000,-121.038000,2.992000,7.771000,29.66
7.748418,-1.074000,-0.362000,-0.083000,-119.908000,-2.015000,-26.168000,29.66
7.758352,0.078000,0.730000,-0.304000,-79.374000,55.008000,-48.412000,29.57
7.768273,0.354000,1.196000,-0.965000,-68.183000,119.511000,-63.313000,29.61
7.778200,0.980000,1.125000,-2.339000,-14.855000,152.290000,-81.267000,29.71
7.788235,1.144000,0.570000,-2.493000,25.130000,106.962000,-96.718000,29.57
7.798164,0.707000,0.099000,-1.319000,42.733000,100.672000,-105.939000,29.57
7.808179,0.778000,-0.508000,-1.217000,52.656000,115.344000,-84.580000,29.71
7.818173,0.562000,-0.554000,-0.905000,58.916000,119.252000,-64.000000,29.61
7.828248,0.802000,-0.732000,-1.028000,39.084000,106.473000,-61.023000,29.57
7.838225,0.858000,-0.702000,-0.935000,25.603000,91.023000,-55.191000,29.75
7.848155,0.970000,-0.960000,-0.811000,11.435000,79.099000,-39.847000,29.61
7.858175,0.804000,-0.816000,-0.826000,-6.489000,68.702000,-34.779000,29.61
7.868199,0.674000,-0.701000,-0.826000,-21.435000,48.534000,-34.656000,29.75
7.878240,0.491000,-0.661000,-0.673000,-38.611000,34.779000,-37.756000,29.66
7.888248,0.258000,-0.602000,-0.516000,-60.916000,35.145000,-45.847000,29.71
7.898217,0.156000,-0.512000,-0.468000,-95.573000,42.550000,-59.954000,29.71
7.908243,0.323000,-0.581000,-0.643000,-130.977000,56.763000,-71.908000,29.61
7.918233,0.585000,-0.751000,-1.082000,-125.939000,59.542000,-66.580000,29.66
7.928313,0.639000,-0.244000,-1.067000,-117.496000,56.412000,-59.664000,29.57
7.938275,0.642000,-0.124000,-1.149000,-97.649000,46.626000,-48.489000,29.61
7.948266,0.473000,-0.258000,-0.897000,-84.244000,40.076000,-42.763000,29.57
7.958265,0.470000,-0.379000,-0.817000,-83.298000,44.336000,-43.344000,29.66
7.968489,0.534000,-0.298000,-0.886000,-84.031000,50.641000,-45.557000,29.57
7.978329,0.563000,-0.212000,-0.878000,-74.947000,38.947000,-44.641000,29.61
7.988401,0.536000,-0.394000,-0.775000,-72.824000,33.053000,-48.397000,29.61
7.998398,0.578000,-0.280000,-0.861000,-70.382000,24.397000,-50.626000,29.66
8.008360,0.558000,-0.150000,-0.861000,-59.802000,13.969000,-48.977000,29.66
8.018374,0.567000,-0.180000,-0.845000,-49.740000,7.481000,-45.221000,29.52
8.028476,0.581000,-0.124000,-0.860000,-44.122000,18.534000,-41.069000,29.61
8.038588,0.583000,-0.115000,-0.864000,-36.443000,10.061000,-37.099000,29.71
8.048509,0.556000,-0.145000,-0.854000,-30.824000,9.695000,-34.595000,29.66
8.058557,0.507000,-0.125000,-0.844000,-27.344000,15.252000,-30.519000,29.66
8.068351,0.552000,-0.107000,-0.837000,-22.107000,18.595000,-27.450000,29.61
8.078393,0.545000,-0.131000,-0.844000,-19.527000,24.931000,-24.977000,29.71
8.088370,0.548000,-0.142000,-0.835000,-16.076000,29.481000,-23.588000,29.66
8.098323,0.561000,-0.190000,-0.840000,-14.229000,33.267000,-23.115000,29.57
8.108347,0.572000,-0.168000,-0.834000,-10.885000,37.282000,-23.511000,29.61
8.118339,0.551000,-0.161000,-0.830000,-14.351000,47.710000,-23.176000,29.71
8.128413,0.625000,-0.169000,-0.818000,-15.145000,55.573000,-21.985000,29.57
8.138442,0.584000,-0.104000,-0.848000,-14.641000,59.420000,-21.252000,29.66
8.148445,0.524000,-0.103000,-0.852000,-14.443000,67.634000,-18.198000,29.71
8.158557,0.537000,-0.140000,-0.855000,-16.000000,79.023000,-13.496000,29.61
8.168505,0.534000,-0.139000,-0.866000,-17.191000,91.313000,-13.466000,29.71
8.178425,0.558000,-0.097000,-0.841000,-11.344000,110.672000,-14.092000,29.66
8.188429,0.523000,-0.190000,-0.793000,-20.397000,135.389000,-14.427000,29.66
8.198451,0.530000,-0.156000,-0.800000,-21.084000,152.489000,-20.824000,29.71
8.208430,0.480000,-0.153000,-0.783000,-24.565000,169.557000,-24.931000,29.57
8.218474,0.574000,-0.093000,-0.783000,-20.061000,186.809000,-29.084000,29.66
8.228425,0.598000,-0.083000,-0.786000,-14.397000,202.809000,-32.824000,29.66
8.238487,0.608000,-0.110000,-0.789000,-14.824000,214.977000,-36.687000,29.61
8.248528,0.566000,-0.152000,-0.733000,-20.000000,233.756000,-45.191000,29.52
8.258579,0.736000,-0.072000,-0.738000,-21.328000,252.000000,-53.420000,29.66
8.268562,0.619000,-0.232000,-0.801000,-27.603000,270.550000,-68.214000,29.66
8.278558,0.775000,-0.239000,-0.819000,-41.191000,290.153000,-86.153000,29.61
8.288631,1.008000,-0.352000,-0.938000,-30.672000,311.679000,-104.107000,29.61
8.298577,1.251000,-0.515000,-1.110000,-2.641000,327.878000,-119.160000,29.66
8.308647,1.576000,-0.554000,-1.371000,17.405000,348.336000,-130.031000,29.66
8.318467,1.958000,-0.503000,-1.689000,25.863000,367.359000,-140.275000,29.61
8.328410,2.060000,-0.120000,-1.632000,19.557000,371.924000,-161.328000,29.71
8.338351,1.809000,-0.653000,-1.793000,6.473000,356.412000,-188.977000,29.66
8.348324,2.243000,-1.012000,-2.202000,-27.389000,311.130000,-197.389000,29.66
8.358360,1.164000,-0.909000,-2.440000,-22.107000,275.023000,-180.000000,29.66
8.368426,-0.638000,-3.109000,-3.086000,30.687000,136.855000,-63.664000,29.61
8.378400,1.856000,-3.166000,-4.000000,-14.168000,28.565000,29.893000,29.52
8.388448,-0.731000,-2.567000,-2.164000,-113.115000,-96.015000,42.198000,29.57
8.398442,-1.137000,-1.424000,-1.556000,-143.008000,-82.305000,54.519000,29.66
8.408441,-0.500000,-0.621000,-2.199000,-97.740000,-133.786000,65.252000,29.61
8.418479,-0.269000,-0.422000,-2.211000,-14.443000,-179.176000,70.901000,29.57
8.428530,-0.219000,-0.766000,-1.889000,27.115000,-220.931000,62.916000,29.57
8.438516,-0.016000,-0.876000,-1.575000,16.351000,-262.397000,43.328000,29.57
8.448444,0.183000,-0.751000,-1.387000,2.412000,-290.137000,25.160000,29.71
8.458470,0.497000,-0.475000,-1.365000,12.504000,-310.565000,18.015000,29.61
8.468512,0.794000,-0.324000,-1.256000,40.092000,-333.802000,14.122000,29.66
8.478527,0.924000,-0.266000,-1.086000,65.603000,-353.740000,5.527000,29.66
8.488570,1.022000,-0.292000,-0.951000,83.695000,-367.466000,-4.321000,29.71
8.498674,1.034000,-0.314000,-0.838000,92.611000,-364.916000,-8.809000,29.61
8.508680,0.991000,-0.346000,-0.774000,106.702000,-351.496000,-5.298000,29.71
8.518644,1.128000,-0.366000,-0.771000,122.824000,-331.145000,10.092000,29.66
8.528638,1.165000,-0.433000,-0.803000,136.641000,-307.664000,31.176000,29.66
8.538640,1.216000,-0.435000,-0.904000,147.344000,-285.664000,54.656000,29.61
8.548665,1.286000,-0.420000,-0.980000,153.420000,-266.458000,76.443000,29.61
8.558722,1.390000,-0.448000,-1.074000,157.069000,-251.511000,94.076000,29.66
8.568751,1.503000,-0.406000,-1.054000,163.908000,-237.679000,114.321000,29.57
8.578506,1.669000,-0.372000,-1.039000,170.061000,-223.435000,134.443000,29.61
8.588521,1.788000,-0.353000,-0.980000,172.809000,-206.824000,156.641000,29.61
8.598690,1.969000,-0.319000,-0.937000,168.412000,-191.496000,179.328000,29.66
8.608671,2.104000,-0.213000,-0.938000,159.557000,-175.695000,200.702000,29.66
8.618690,2.233000,-0.007000,-0.965000,157.313000,-162.794000,221.313000,29.61
8.628703,2.352000,0.246000,-0.914000,166.809000,-144.290000,242.305000,29.71
8.638448,2.481000,0.550000,-0.806000,178.840000,-129.695000,257.954000,29.61
8.648540,2.538000,0.773000,-0.620000,185.939000,-115.237000,264.443000,29.66
8.658620,2.654000,0.939000,-0.427000,179.649000,-104.656000,256.794000,29.66
8.668691,2.941000,1.012000,-0.162000,137.863000,-87.374000,225.557000,29.61
8.678638,2.811000,1.225000,0.095000,100.183000,-90.580000,179.450000,29.57
8.688532,2.778000,1.468000,0.323000,68.901000,-85.038000,123.710000,29.66
8.698551,2.626000,1.348000,0.875000,5.435000,-49.191000,83.817000,29.57
8.708592,2.521000,1.380000,1.095000,0.794000,-27.221000,25.618000,29.61
8.718611,2.695000,1.032000,1.184000,-84.550000,26.718000,-3.511000,29.71
8.728554,2.841000,0.976000,1.196000,-172.626000,60.733000,-25.008000,29.57
8.738504,1.771000,1.539000,0.708000,-219.176000,84.840000,-41.282000,29.57
8.748604,0.834000,0.498000,-1.972000,-93.328000,181.634000,-13.130000,29.71
8.758573,0.376000,-0.440000,-2.917000,-91.939000,82.748000,-4.031000,29.61
8.768583,-0.637000,0.199000,-1.452000,-68.397000,70.580000,-26.092000,29.71
8.778603,-0.719000,1.259000,-0.538000,-40.076000,92.504000,-106.382000,29.57
8.788667,0.807000,0.617000,-1.061000,-16.534000,164.565000,-117.939000,29.57
8.798570,1.773000,0.104000,-2.274000,26.977000,166.565000,-92.076000,29.71
8.808673,0.927000,0.001000,-1.342000,39.450000,140.702000,-85.878000,29.61
8.818544,1.293000,-0.649000,-1.616000,28.763000,98.962000,-99.282000,29.66
8.828556,1.297000,-0.897000,-0.981000,8.565000,86.519000,-64.992000,29.66
8.838574,0.817000,-0.655000,-0.842000,-11.053000,87.267000,-50.260000,29.71
8.848542,0.556000,-0.328000,-0.953000,-15.939000,76.580000,-45.374000,29.61
8.858613,0.676000,-0.470000,-0.890000,-23.115000,63.832000,-44.183000,29.57
8.868536,0.786000,-0.719000,-0.730000,-32.626000,52.718000,-35.252000,29.66
8.878705,0.565000,-0.543000,-0.754000,-41.725000,42.305000,-33.389000,29.71
8.888525,0.476000,-0.464000,-0.746000,-56.366000,30.290000,-38.382000,29.66
8.898544,0.520000,-0.554000,-0.708000,-79.618000,20.412000,-43.939000,29.66
8.908640,0.504000,-0.476000,-0.864000,-97.053000,21.008000,-48.763000,29.66
8.918626,0.591000,-0.469000,-1.015000,-95.145000,25.618000,-45.679000,29.61
8.928599,0.605000,-0.346000,-0.985000,-81.603000,26.366000,-40.870000,29.61
8.938723,0.578000,-0.207000,-0.999000,-63.511000,26.534000,-34.489000,29.66
8.948602,0.605000,-0.164000,-1.039000,-44.794000,23.450000,-26.947000,29.66
8.958669,0.505000,-0.203000,-0.859000,-32.382000,22.748000,-22.168000,29.75
8.968702,0.540000,-0.269000,-0.868000,-26.977000,27.313000,-20.168000,29.80
8.978622,0.521000,-0.250000,-0.834000,-23.252000,27.145000,-19.206000,29.71
8.988646,0.538000,-0.266000,-0.839000,-20.122000,27.130000,-18.183000,29.57
8.998679,0.524000,-0.271000,-0.811000,-17.985000,25.649000,-18.214000,29.66
9.008657,0.530000,-0.288000,-0.805000,-18.061000,24.351000,-19.313000,29.61
9.018701,0.527000,-0.293000,-0.775000,-21.038000,23.252000,-22.275000,29.61
9.028582,0.539000,-0.290000,-0.776000,-24.687000,18.275000,-26.229000,29.57
9.038647,0.542000,-0.314000,-0.788000,-26.809000,15.008000,-28.275000,29.66
9.048699,0.565000,-0.211000,-0.819000,-26.718000,13.618000,-28.122000,29.52
9.058646,0.085000,-0.102000,-0.864000,-7.603000,11.435000,-39.603000,29.71
9.068684,0.159000,-0.138000,-0.956000,-16.382000,-1.939000,-25.496000,29.66
9.078588,0.520000,-0.134000,-0.944000,-21.282000,15.099000,-21.817000,29.57
9.088748,0.580000,-0.257000,-0.832000,-19.405000,15.863000,-21.267000,29.71
9.098643,0.579000,-0.181000,-0.814000,-18.107000,18.443000,-20.168000,29.61
9.108739,0.551000,-0.160000,-0.824000,-15.573000,21.405000,-18.718000,29.57
9.118898,0.663000,-0.420000,-0.751000,-21.023000,23.664000,-15.725000,29.57
9.128673,0.569000,-0.171000,-0.815000,-14.763000,24.137000,-18.748000,29.66
9.138685,0.559000,-0.223000,-0.811000,-14.214000,28.824000,-19.756000,29.61
9.148572,0.530000,-0.187000,-0.801000,-11.450000,32.855000,-20.794000,29.66
9.158642,0.528000,-0.200000,-0.806000,-10.412000,37.573000,-21.344000,29.66
9.168594,0.500000,-0.239000,-0.819000,-13.221000,46.397000,-21.618000,29.57
9.178582,0.528000,-0.311000,-0.834000,-15.618000,55.954000,-24.260000,29.61
9.188604,0.536000,-0.276000,-0.844000,-20.718000,70.366000,-27.328000,29.71
9.198710,0.558000,-0.225000,-0.804000,-24.977000,88.580000,-25.191000,29.66
9.208723,0.548000,-0.208000,-0.836000,-24.855000,105.481000,-24.718000,29.57
9.218636,0.590000,-0.160000,-0.827000,-25.206000,124.870000,-23.557000,29.61
9.228716,0.583000,-0.082000,-0.808000,-23.847000,149.786000,-21.649000,29.71
9.238761,0.522000,-0.051000,-0.788000,-18.641000,174.275000,-23.008000,29.61
9.248689,0.472000,-0.104000,-0.822000,-15.588000,201.221000,-27.405000,29.66
9.258753,0.535000,-0.134000,-0.858000,-9.878000,223.603000,-32.397000,29.66
9.268712,0.471000,-0.181000,-0.824000,-8.534000,246.076000,-40.779000,29.71
9.278526,0.604000,-0.173000,-0.753000,-16.458000,275.618000,-55.130000,29.71
9.288732,0.636000,-0.176000,-0.833000,-17.267000,296.137000,-71.405000,29.66
9.298658,0.734000,-0.300000,-0.896000,-35.267000,318.489000,-92.733000,29.66
9.308702,0.970000,-0.359000,-1.120000,-45.679000,342.427000,-106.351000,29.61
9.318603,1.079000,-0.357000,-1.072000,-42.947000,377.206000,-114.076000,29.52
9.328622,1.713000,-0.466000,-1.521000,2.168000,410.992000,-105.618000,29.57
9.338656,2.220000,-0.574000,-1.702000,71.359000,394.794000,-91.679000,29.66
9.348676,2.439000,-0.356000,-1.710000,96.687000,356.076000,-100.718000,29.61
9.358657,2.215000,-0.320000,-1.573000,53.710000,334.122000,-129.557000,29.61
9.368653,1.938000,-0.740000,-2.043000,-13.466000,275.405000,-153.115000,29.61
9.378581,0.399000,-1.281000,-2.015000,-60.046000,216.229000,-147.542000,29.57
9.388660,-0.722000,-2.829000,-2.929000,-44.824000,105.176000,-45.374000,29.57
9.398641,1.881000,-2.735000,-3.910000,-116.412000,-5.328000,-4.443000,29.61
9.408670,-0.826000,-1.804000,-1.802000,-182.672000,-96.198000,2.061000,29.57
9.418819,-0.550000,-1.194000,-1.577000,-198.305000,-126.702000,-10.931000,29.66
9.428642,-0.208000,-0.531000,-1.939000,-150.779000,-178.443000,-8.611000,29.66
9.438717,-0.199000,-0.526000,-1.820000,-86.855000,-209.435000,-10.748000,29.61
9.448789,-0.147000,-0.702000,-1.610000,-60.275000,-247.405000,-27.939000,29.61
9.458720,-0.068000,-0.723000,-1.359000,-59.496000,-271.099000,-53.542000,29.57
9.468744,0.062000,-0.560000,-1.193000,-47.740000,-291.969000,-70.565000,29.57
9.478612,0.231000,-0.477000,-1.114000,-14.931000,-308.687000,-72.824000,29.66
9.488655,0.397000,-0.506000,-1.004000,25.664000,-324.351000,-64.107000,29.52
9.498656,0.484000,-0.608000,-0.846000,58.305000,-327.634000,-49.053000,29.61
9.508769,0.541000,-0.774000,-0.728000,73.160000,-323.099000,-29.023000,29.66
9.518788,0.645000,-0.882000,-0.733000,75.389000,-308.748000,-3.557000,29.57
9.528713,0.765000,-0.885000,-0.759000,75.695000,-296.534000,25.954000,29.71
9.538666,0.854000,-0.804000,-0.793000,84.443000,-286.168000,56.962000,29.61
9.548664,0.956000,-0.748000,-0.864000,98.626000,-278.687000,87.160000,29.66
9.558803,1.062000,-0.708000,-0.914000,108.901000,-270.015000,112.885000,29.57
9.568869,1.190000,-0.620000,-0.982000,115.603000,-257.282000,131.466000,29.57
9.578749,1.342000,-0.532000,-1.044000,125.099000,-242.550000,144.458000,29.61
9.588864,1.517000,-0.445000,-1.054000,136.290000,-227.221000,158.229000,29.61
9.598759,1.697000,-0.376000,-1.090000,146.565000,-212.076000,172.763000,29.66
9.608754,1.940000,-0.335000,-1.102000,150.336000,-197.771000,189.527000,29.57
9.618560,2.212000,-0.294000,-1.102000,151.038000,-191.679000,205.298000,29.71
9.628488,2.439000,-0.210000,-1.044000,133.053000,-171.969000,214.458000,29.61
9.638390,2.618000,0.018000,-0.972000,122.519000,-175.191000,211.939000,29.66
9.648235,2.679000,0.379000,-0.850000,137.405000,-176.229000,203.985000,29.57
9.658172,2.676000,0.751000,-0.699000,176.275000,-171.664000,197.786000,29.66
9.668192,2.659000,0.984000,-0.442000,228.427000,-156.504000,195.008000,29.61
9.678205,2.674000,1.086000,-0.138000,262.611000,-130.855000,192.260000,29.61
9.688188,2.739000,1.209000,0.143000,264.229000,-100.275000,180.733000,29.66
9.701282,2.744000,1.366000,0.284000,223.954000,-77.191000,145.466000,29.57
9.708340,2.799000,1.483000,0.318000,148.000000,-72.962000,82.031000,29.71
9.718351,2.679000,1.699000,0.290000,63.145000,-75.389000,-0.901000,29.66
9.728331,2.687000,1.905000,0.359000,21.374000,-78.214000,-70.550000,29.66
9.738312,2.670000,1.750000,0.433000,-0.443000,-41.954000,-106.015000,29.57
9.748232,2.579000,0.444000,1.151000,-134.168000,-10.412000,-133.481000,29.61
9.758574,0.312000,1.448000,0.399000,-190.901000,-20.855000,-162.015000,29.61
9.768237,0.719000,0.083000,-2.179000,-84.458000,46.916000,-34.916000,29.66
9.778231,-0.596000,-1.596000,-1.812000,-74.763000,6.168000,4.901000,29.57
9.788199,-0.687000,-0.956000,-0.636000,-84.580000,34.458000,-18.183000,29.66
9.798299,0.109000,0.040000,-0.530000,-75.527000,52.870000,-46.794000,29.61
9.808232,0.919000,0.632000,-0.895000,-25.863000,116.916000,-35.435000,29.61
9.818610,0.902000,0.902000,-1.697000,-1.038000,128.107000,-40.275000,29.57
9.829059,0.550000,0.760000,-1.877000,19.664000,109.542000,-61.939000,29.57
9.838773,0.532000,0.082000,-1.271000,40.489000,104.122000,-73.771000,29.71
9.848964,0.978000,-0.778000,-1.024000,52.977000,85.282000,-67.328000,29.61
9.858501,0.959000,-1.167000,-0.816000,29.679000,87.588000,-52.947000,29.57
9.871457,0.697000,-0.839000,-0.722000,10.656000,72.733000,-45.603000,29.57
9.879778,0.568000,-0.199000,-0.980000,3.267000,67.649000,-47.649000,29.61
9.888642,0.853000,-0.430000,-1.074000,-3.710000,45.450000,-44.015000,29.71
9.898645,0.731000,-0.699000,-0.766000,-12.840000,36.107000,-34.290000,29.66
9.908692,0.589000,-0.660000,-0.761000,-22.718000,31.511000,-28.626000,29.66
9.918340,0.499000,-0.428000,-0.853000,-33.466000,24.382000,-30.870000,29.52
9.928751,0.444000,-0.414000,-0.774000,-44.076000,21.405000,-34.137000,29.61
9.941322,0.339000,-0.418000,-0.694000,-55.481000,21.634000,-37.634000,29.66
9.949178,0.272000,-0.348000,-0.663000,-74.290000,24.061000,-45.450000,29.57
9.959215,0.334000,-0.385000,-0.707000,-98.031000,28.565000,-53.954000,29.57
9.968683,0.470000,-0.541000,-0.839000,-104.550000,36.824000,-55.969000,29.61
9.979108,0.468000,-0.561000,-0.871000,-102.137000,39.832000,-55.206000,29.66
9.988624,0.568000,-0.424000,-0.911000,-98.580000,43.084000,-52.626000,29.66
9.998869,0.573000,-0.246000,-0.947000,-87.786000,41.145000,-47.344000,29.57
10.009417,0.598000,-0.212000,-0.991000,-75.115000,37.893000,-41.908000,29.71
