# Gait Analysis Data - MPU6050 IMU
# Duration: 10 seconds
# Format: timestamp(s),ax(g),ay(g),az(g),gx(deg/s),gy(deg/s),gz(deg/s),temp(C)
# Note: Document sensor placement (ankle/wrist) separately
timestamp,ax,ay,az,gx,gy,gz,temp
0.001281,0.658000,-0.239000,-1.082000,-57.328000,37.435000,-36.244000,29.71
0.002261,0.611000,-0.125000,-0.902000,-39.282000,27.344000,-30.382000,29.66
0.002900,0.533000,-0.300000,-0.808000,-34.290000,25.878000,-28.824000,29.57
0.003535,0.490000,-0.292000,-0.807000,-33.939000,21.053000,-31.588000,29.61
0.004159,0.538000,-0.282000,-0.815000,-34.748000,20.794000,-33.313000,29.61
0.004785,0.504000,-0.167000,-0.790000,-33.145000,15.893000,-33.252000,29.66
0.005407,0.473000,-0.106000,-0.561000,-34.992000,26.076000,-33.084000,29.66
0.006026,0.231000,-0.125000,-0.804000,-24.931000,1.710000,-26.702000,29.75
0.006649,0.414000,-0.111000,-0.872000,-26.931000,15.603000,-27.588000,29.61
0.007259,0.628000,-0.237000,-0.811000,-26.275000,16.183000,-26.565000,29.61
0.007875,0.502000,-0.142000,-0.859000,-25.450000,19.634000,-26.015000,29.66
0.008495,0.520000,-0.166000,-0.823000,-20.840000,22.916000,-24.382000,29.66
0.009208,0.509000,-0.157000,-0.861000,-20.779000,28.611000,-24.015000,29.61
0.010142,0.545000,-0.220000,-0.821000,-19.786000,32.962000,-24.290000,29.61
0.010914,0.563000,-0.200000,-0.825000,-20.061000,36.076000,-25.038000,29.66
0.011619,0.493000,0.132000,-0.922000,-9.435000,37.206000,-29.130000,29.57
0.012329,0.548000,-0.065000,-0.827000,-14.336000,44.473000,-26.489000,29.61
0.013027,0.535000,-0.260000,-0.823000,-16.611000,52.214000,-24.809000,29.61
0.013719,0.584000,-0.170000,-0.820000,-16.458000,60.626000,-23.893000,29.66
0.014495,0.520000,-0.167000,-0.859000,-20.702000,74.656000,-21.985000,29.66
0.015272,0.571000,-0.178000,-0.875000,-20.198000,87.679000,-20.870000,29.57
0.016233,0.572000,-0.176000,-0.861000,-21.588000,103.802000,-19.634000,29.61
0.017068,0.611000,-0.155000,-0.809000,-24.092000,125.649000,-15.511000,29.66
0.017824,0.590000,-0.097000,-0.830000,-23.481000,152.198000,-15.954000,29.66
0.018622,0.542000,-0.072000,-0.846000,-21.863000,178.595000,-19.634000,29.66
0.019541,0.398000,-0.221000,-0.810000,-15.786000,203.634000,-35.771000,29.61
0.020362,0.566000,-0.202000,-0.872000,-6.366000,219.695000,-44.076000,29.61
0.020998,0.625000,-0.234000,-0.916000,5.985000,230.382000,-50.748000,29.66
0.021905,0.675000,-0.190000,-0.827000,3.725000,245.908000,-63.053000,29.57
0.022787,0.815000,-0.231000,-0.932000,2.672000,255.405000,-78.366000,29.52
0.023560,0.815000,-0.311000,-0.972000,-6.870000,273.740000,-91.038000,29.61
0.024277,0.894000,-0.247000,-0.894000,-10.046000,283.679000,-108.656000,29.57
0.024993,1.062000,-0.329000,-1.125000,-13.954000,300.672000,-121.939000,29.57
0.025695,1.278000,-0.353000,-1.233000,-21.389000,318.107000,-128.427000,29.71
0.026399,1.952000,-0.495000,-1.730000,-28.977000,320.076000,-135.160000,29.61
0.027101,1.817000,-0.470000,-1.482000,-20.809000,311.542000,-148.351000,29.57
0.027800,1.928000,-0.500000,-1.745000,-29.328000,280.626000,-162.458000,29.66
0.028499,1.455000,-0.791000,-1.974000,-48.840000,226.275000,-156.198000,29.66
0.029293,-0.409000,-2.112000,-2.577000,-34.061000,127.893000,-89.664000,29.71
0.029985,0.868000,-2.580000,-2.718000,-62.015000,48.382000,-10.366000,29.61
0.030676,-0.317000,-1.822000,-1.946000,-111.557000,-31.573000,3.481000,29.75
0.031353,-0.953000,-1.268000,-0.664000,-120.550000,-20.351000,19.542000,29.66
0.031970,-0.062000,-1.048000,-1.592000,-98.305000,-51.603000,34.107000,29.61
0.032587,0.122000,-1.060000,-1.846000,-66.901000,-88.321000,59.511000,29.66
0.033218,0.167000,-1.019000,-1.734000,-48.489000,-139.405000,72.611000,29.57
0.033843,0.116000,-0.829000,-1.503000,-45.359000,-178.168000,72.718000,29.66
0.034465,0.113000,-0.509000,-1.301000,-41.649000,-215.985000,61.725000,29.61
0.035093,0.136000,-0.232000,-1.112000,-23.008000,-244.779000,46.382000,29.52
0.035706,0.238000,-0.123000,-0.953000,5.206000,-266.748000,30.000000,29.57
0.036328,0.294000,-0.203000,-0.800000,31.802000,-278.626000,17.405000,29.66
0.036947,0.421000,-0.366000,-0.781000,52.061000,-282.061000,10.748000,29.66
0.037626,0.558000,-0.512000,-0.773000,65.420000,-282.611000,14.015000,29.61
0.038251,0.653000,-0.624000,-0.756000,76.397000,-286.000000,27.710000,29.61
0.038866,0.758000,-0.766000,-0.751000,87.053000,-281.863000,51.557000,29.66
0.039535,0.846000,-0.803000,-0.705000,96.931000,-270.122000,85.832000,29.75
0.040290,0.875000,-0.866000,-0.660000,100.962000,-246.489000,125.740000,29.61
0.040887,0.948000,-0.970000,-0.675000,92.870000,-220.687000,166.015000,29.71
0.041476,1.120000,-0.846000,-0.662000,88.870000,-194.473000,207.389000,29.57
0.042090,1.224000,-0.414000,-0.621000,98.443000,-160.351000,240.443000,29.66
0.042677,1.409000,-0.007000,-0.614000,109.618000,-128.107000,249.618000,29.52
0.043245,1.716000,0.250000,-0.733000,118.992000,-100.076000,242.611000,29.71
0.043871,2.249000,0.352000,-0.994000,115.206000,-91.878000,227.924000,29.66
0.044451,2.572000,0.416000,-0.862000,98.076000,-103.893000,199.725000,29.66
0.045016,2.688000,0.783000,-0.538000,86.427000,-108.870000,156.779000,29.66
0.045569,2.665000,1.295000,0.124000,99.893000,-88.275000,106.397000,29.61
0.046124,2.690000,1.333000,0.722000,135.115000,-80.092000,57.542000,29.61
0.046674,2.807000,1.076000,1.056000,162.336000,-40.565000,24.321000,29.66
0.047214,2.895000,0.983000,1.269000,168.763000,3.435000,9.618000,29.66
0.047769,2.784000,1.023000,1.394000,159.359000,36.733000,-4.290000,29.61
0.048329,2.518000,1.336000,1.420000,157.802000,83.588000,-22.626000,29.61
0.048881,2.527000,1.373000,1.117000,176.763000,111.863000,-31.145000,29.57
0.049460,3.816000,0.052000,0.490000,-72.122000,-13.008000,-265.817000,29.66
0.050106,1.712000,1.733000,-0.486000,-175.344000,-50.412000,-151.237000,29.61
0.050648,1.630000,-1.718000,0.327000,-188.565000,-30.550000,-107.908000,29.71
0.051185,0.064000,-0.616000,-0.656000,-294.473000,-38.000000,-130.473000,29.57
0.051712,0.719000,0.872000,-2.601000,-192.504000,-60.550000,-152.534000,29.66
0.052253,1.220000,-0.221000,-0.970000,-141.115000,-127.664000,-130.794000,29.57
0.052772,1.057000,-0.031000,-1.479000,-147.450000,10.305000,-85.267000,29.61
0.053329,0.233000,0.886000,-1.207000,-64.321000,-42.779000,-48.351000,29.61
0.053986,0.781000,-0.139000,-1.101000,-40.366000,-6.122000,-32.931000,29.66
0.054512,0.606000,0.187000,-1.109000,-23.084000,5.420000,-18.947000,29.57
0.055010,0.603000,0.130000,-1.001000,-6.427000,18.229000,-4.443000,29.61
0.055516,0.642000,-0.052000,-0.917000,-0.031000,17.786000,3.389000,29.61
0.056015,0.692000,-0.239000,-0.807000,-0.870000,11.664000,7.344000,29.57
0.056516,0.699000,-0.222000,-0.750000,-2.458000,-1.450000,7.969000,29.66
0.057022,0.589000,-0.370000,-0.686000,-4.397000,-11.511000,5.527000,29.61
0.057526,0.541000,-0.419000,-0.727000,-8.748000,-15.374000,0.046000,29.71
0.058035,0.470000,-0.341000,-0.748000,-11.405000,-13.389000,-5.191000,29.66
0.058547,0.443000,-0.285000,-0.814000,-13.374000,-9.481000,-9.511000,29.66
0.059059,0.519000,-0.263000,-0.811000,-16.397000,-8.351000,-13.053000,29.61
0.059565,0.543000,-0.239000,-0.824000,-18.580000,-6.458000,-14.473000,29.61
0.060080,0.574000,-0.132000,-0.851000,-15.115000,-2.397000,-11.618000,29.61
0.060589,0.575000,-0.132000,-0.833000,-10.763000,-1.466000,-8.305000,29.57
0.061070,0.562000,-0.117000,-0.844000,-6.870000,-0.275000,-4.565000,29.57
0.061535,0.585000,-0.116000,-0.846000,-2.015000,-1.450000,-0.519000,29.61
0.061994,0.597000,-0.132000,-0.838000,-0.809000,-0.641000,2.550000,29.57
0.062461,0.541000,-0.161000,-0.812000,-0.137000,-0.015000,4.519000,29.66
0.062914,0.470000,-0.225000,-0.799000,0.031000,4.702000,4.076000,29.57
0.063368,0.452000,-0.277000,-0.797000,-0.229000,2.992000,-0.305000,29.61
0.063934,0.511000,-0.256000,-0.822000,-3.664000,5.756000,-3.374000,29.61
0.064592,0.543000,-0.206000,-0.810000,-5.542000,6.336000,-4.626000,29.66
0.065073,0.561000,-0.205000,-0.817000,-6.244000,5.160000,-4.885000,29.75
0.065532,0.556000,-0.196000,-0.805000,-6.382000,2.840000,-4.962000,29.71
0.066018,0.555000,-0.198000,-0.803000,-5.618000,0.321000,-4.672000,29.71
0.066497,0.561000,-0.190000,-0.823000,-5.008000,-2.092000,-3.679000,29.57
0.066971,0.562000,-0.181000,-0.824000,-5.099000,-1.939000,-2.809000,29.66
0.067473,0.552000,-0.178000,-0.819000,-4.763000,-3.191000,-1.740000,29.61
0.067944,0.530000,-0.175000,-0.828000,-3.588000,-2.702000,-1.282000,29.61
0.068426,0.527000,-0.188000,-0.809000,-3.618000,-0.977000,-1.450000,29.57
0.068888,0.526000,-0.190000,-0.822000,-4.015000,1.481000,-1.603000,29.66
0.069348,0.519000,-0.204000,-0.813000,-4.916000,2.427000,-2.458000,29.61
0.069808,0.517000,-0.212000,-0.822000,-6.046000,2.015000,-3.832000,29.61
0.070269,0.544000,-0.198000,-0.815000,-6.611000,0.763000,-4.458000,29.61
0.070729,0.540000,-0.205000,-0.819000,-6.687000,-0.336000,-4.672000,29.66
0.071174,0.553000,-0.191000,-0.810000,-6.656000,-0.305000,-4.565000,29.66
0.071620,0.553000,-0.178000,-0.816000,-6.137000,-0.992000,-4.076000,29.52
0.072061,0.549000,-0.176000,-0.824000,-6.504000,-0.534000,-3.481000,29.66
0.072543,0.562000,-0.169000,-0.830000,-6.595000,-1.069000,-2.977000,29.66
0.073014,0.564000,-0.161000,-0.831000,-6.931000,-0.687000,-1.924000,29.66
0.073525,0.581000,-0.151000,-0.837000,-7.374000,-1.298000,-0.412000,29.61
0.074160,0.570000,-0.150000,-0.843000,-7.160000,-1.756000,1.176000,29.61
0.074661,0.531000,-0.166000,-0.838000,-6.122000,-1.908000,2.458000,29.66
0.075123,0.501000,-0.214000,-0.827000,-3.664000,-0.183000,2.519000,29.66
0.075562,0.516000,-0.219000,-0.844000,-2.366000,2.351000,2.092000,29.61
0.075999,0.512000,-0.242000,-0.833000,-2.718000,4.992000,0.595000,29.61
0.076442,0.508000,-0.263000,-0.817000,-4.031000,6.992000,-2.153000,29.66
0.076881,0.525000,-0.259000,-0.826000,-7.130000,7.267000,-4.870000,29.66
0.077324,0.551000,-0.237000,-0.811000,-9.557000,7.008000,-7.145000,29.61
0.077765,0.562000,-0.200000,-0.810000,-11.191000,5.924000,-7.649000,29.61
0.078209,0.551000,-0.213000,-0.817000,-12.397000,4.550000,-8.092000,29.66
0.078650,0.547000,-0.194000,-0.821000,-13.908000,4.992000,-8.427000,29.57
0.079094,0.559000,-0.180000,-0.821000,-15.053000,3.634000,-8.092000,29.61
0.079531,0.560000,-0.153000,-0.825000,-15.435000,3.969000,-7.176000,29.61
0.080051,0.563000,-0.145000,-0.829000,-16.107000,4.779000,-5.588000,29.61
0.080646,0.559000,-0.136000,-0.824000,-16.336000,5.374000,-4.336000,29.57
0.081113,0.538000,-0.141000,-0.824000,-15.191000,8.351000,-3.863000,29.66
0.081576,0.524000,-0.197000,-0.805000,-16.702000,13.740000,-2.534000,29.61
0.082021,0.490000,-0.214000,-0.822000,-19.649000,17.786000,-4.244000,29.66
0.082471,0.524000,-0.201000,-0.839000,-18.977000,20.992000,-6.931000,29.66
0.082923,0.501000,-0.140000,-0.834000,-16.458000,19.298000,-12.351000,29.57
0.083400,0.552000,-0.154000,-0.828000,-7.679000,20.275000,-22.901000,29.61
0.083901,0.474000,0.006000,-0.860000,12.107000,19.389000,-46.733000,29.61
0.084406,0.513000,-0.063000,-0.876000,27.939000,17.008000,-71.115000,29.57
0.084921,0.569000,-0.173000,-0.828000,43.893000,20.733000,-92.137000,29.66
0.085386,0.545000,-0.157000,-0.817000,62.046000,22.473000,-111.985000,29.61
0.085838,0.619000,-0.169000,-0.822000,77.328000,24.641000,-131.313000,29.61
0.086285,0.607000,-0.181000,-0.789000,94.840000,21.588000,-149.099000,29.57
0.086740,0.630000,-0.190000,-0.787000,112.122000,16.489000,-166.260000,29.57
0.087196,0.643000,-0.219000,-0.771000,125.832000,8.061000,-181.267000,29.61
0.087674,0.637000,-0.248000,-0.760000,137.679000,0.260000,-195.282000,29.61
0.088155,0.646000,-0.255000,-0.765000,150.168000,-4.733000,-206.550000,29.66
0.088613,0.641000,-0.252000,-0.759000,161.115000,-9.908000,-215.756000,29.75
0.089055,0.653000,-0.224000,-0.771000,170.504000,-13.313000,-223.679000,29.57
0.089508,0.619000,-0.207000,-0.771000,176.321000,-20.076000,-230.473000,29.52
0.089951,0.634000,-0.186000,-0.768000,182.947000,-23.939000,-234.733000,29.61
0.090411,0.614000,-0.177000,-0.773000,188.580000,-29.145000,-237.450000,29.66
0.090872,0.628000,-0.254000,-0.802000,191.374000,-34.992000,-236.412000,29.57
0.091310,0.584000,-0.296000,-0.784000,187.863000,-40.733000,-232.137000,29.61
0.091762,0.515000,-0.350000,-0.739000,180.855000,-42.382000,-222.763000,29.57
0.092316,0.485000,-0.442000,-0.774000,174.290000,-41.298000,-205.557000,29.57
0.092962,0.438000,-0.510000,-0.738000,170.779000,-37.695000,-182.275000,29.66
0.093477,0.367000,-0.554000,-0.714000,164.351000,-33.725000,-159.771000,29.52
0.093969,0.373000,-0.550000,-0.765000,153.069000,-31.206000,-141.481000,29.61
0.094441,0.386000,-0.424000,-0.904000,129.053000,-35.847000,-136.061000,29.66
0.094973,0.371000,-0.209000,-0.962000,108.916000,-41.618000,-132.260000,29.57
0.095494,0.378000,-0.056000,-0.955000,103.725000,-45.618000,-130.595000,29.61
0.095972,0.412000,-0.001000,-0.972000,108.366000,-49.893000,-129.359000,29.52
0.096430,0.455000,0.040000,-0.983000,112.672000,-55.573000,-128.809000,29.61
0.096867,0.458000,0.054000,-0.932000,117.084000,-55.847000,-127.038000,29.66
0.097301,0.476000,0.099000,-0.884000,117.267000,-57.435000,-128.198000,29.66
0.097731,0.484000,0.165000,-0.923000,106.107000,-50.656000,-133.084000,29.61
0.098166,0.594000,0.203000,-0.929000,96.550000,-56.641000,-138.534000,29.61
0.098600,0.713000,0.231000,-0.957000,88.550000,-62.672000,-138.321000,29.66
0.099037,0.656000,0.100000,-0.915000,83.053000,-73.008000,-132.748000,29.66
0.099471,0.603000,-0.051000,-0.921000,76.947000,-76.336000,-122.183000,29.61
0.099911,0.545000,-0.181000,-0.831000,63.008000,-75.374000,-109.832000,29.61
0.100343,0.535000,-0.243000,-0.819000,44.183000,-68.153000,-97.344000,29.57
0.100792,0.440000,-0.265000,-0.783000,28.427000,-58.214000,-84.260000,29.57
0.101241,0.469000,-0.161000,-0.832000,22.641000,-46.351000,-70.977000,29.61
0.101671,0.419000,-0.138000,-0.873000,19.603000,-41.374000,-59.496000,29.57
0.102104,0.406000,-0.110000,-0.910000,17.756000,-34.855000,-49.511000,29.66
0.102545,0.385000,-0.085000,-0.899000,19.695000,-29.802000,-40.870000,29.66
0.102983,0.376000,-0.046000,-0.895000,23.817000,-22.046000,-33.542000,29.61
0.103407,0.377000,-0.037000,-0.877000,24.366000,-14.214000,-29.969000,29.61
0.103970,0.433000,-0.007000,-0.945000,26.992000,-9.557000,-28.076000,29.66
0.104571,0.468000,0.044000,-0.976000,32.275000,-9.282000,-29.511000,29.66
0.105028,0.501000,0.046000,-0.986000,37.924000,-13.786000,-34.046000,29.57
0.105471,0.461000,0.081000,-0.899000,42.229000,-17.008000,-42.290000,29.61
0.105902,0.460000,0.070000,-0.801000,47.252000,-18.031000,-51.908000,29.61
0.106340,0.505000,0.033000,-0.739000,52.275000,-15.038000,-61.191000,29.57
0.106769,0.605000,-0.028000,-0.718000,56.183000,-10.931000,-69.176000,29.66
0.107192,0.691000,-0.025000,-0.716000,61.542000,-7.924000,-74.656000,29.71
0.107610,0.757000,0.000000,-0.677000,64.916000,-6.534000,-78.763000,29.61
0.108032,0.779000,0.043000,-0.636000,65.481000,-3.802000,-83.252000,29.57
0.108456,0.834000,0.078000,-0.623000,63.496000,-5.771000,-88.550000,29.57
0.108883,0.740000,-0.050000,-0.679000,67.008000,-9.405000,-84.992000,29.66
0.109312,0.779000,-0.284000,-0.751000,59.191000,-17.496000,-78.305000,29.61
0.109735,0.592000,-0.394000,-0.689000,41.115000,-20.000000,-64.046000,29.71
0.110165,0.521000,-0.483000,-0.645000,24.763000,-21.557000,-40.214000,29.66
0.110607,0.530000,-0.615000,-0.733000,1.817000,-23.298000,-4.046000,29.66
0.111038,0.386000,-0.223000,-0.742000,-2.947000,-22.260000,2.733000,29.71
0.111456,0.397000,0.186000,-1.092000,-4.336000,-31.145000,-4.183000,29.61
0.111875,0.439000,-0.017000,-0.944000,0.656000,-28.656000,-8.855000,29.57
0.112317,0.537000,-0.550000,-0.800000,3.664000,-12.290000,-6.931000,29.57
0.112756,0.494000,-0.583000,-0.754000,-7.069000,8.901000,-11.328000,29.61
0.113193,0.470000,-0.200000,-0.905000,-11.481000,13.817000,-14.992000,29.61
0.113725,0.522000,-0.078000,-0.904000,-8.763000,11.557000,-13.405000,29.61
0.114296,0.557000,-0.135000,-0.892000,-0.092000,8.947000,-10.137000,29.66
0.114749,0.510000,-0.196000,-0.835000,2.580000,8.962000,-9.344000,29.57
0.115200,0.498000,-0.225000,-0.862000,4.794000,8.641000,-9.725000,29.61
0.115685,0.493000,-0.184000,-0.848000,4.366000,12.366000,-9.954000,29.57
0.116130,0.519000,-0.112000,-0.871000,7.481000,9.008000,-7.634000,29.66
0.116550,0.539000,-0.114000,-0.886000,10.550000,9.664000,-4.183000,29.57
0.116999,0.510000,-0.111000,-0.872000,13.832000,10.870000,-0.275000,29.61
0.117414,0.500000,-0.145000,-0.855000,16.901000,12.305000,2.366000,29.61
0.117869,0.503000,-0.204000,-0.849000,17.618000,14.641000,2.931000,29.66
0.118291,0.537000,-0.240000,-0.829000,15.756000,16.168000,2.382000,29.57
0.118717,0.536000,-0.228000,-0.842000,13.573000,14.733000,1.435000,29.71
0.119125,0.539000,-0.229000,-0.830000,11.435000,13.115000,0.840000,29.71
0.119537,0.548000,-0.248000,-0.832000,8.565000,10.473000,-0.473000,29.57
0.119947,0.540000,-0.229000,-0.832000,5.908000,8.550000,-1.588000,29.57
0.120354,0.536000,-0.207000,-0.840000,4.595000,7.847000,-1.740000,29.61
0.120822,0.530000,-0.202000,-0.846000,3.328000,7.878000,-1.328000,29.61
0.121285,0.527000,-0.202000,-0.848000,3.008000,8.397000,-1.038000,29.71
0.121734,0.520000,-0.193000,-0.844000,2.901000,9.206000,-0.611000,29.57
0.122159,0.518000,-0.202000,-0.839000,2.931000,10.260000,-0.244000,29.57
0.122570,0.517000,-0.205000,-0.839000,2.427000,10.916000,-0.718000,29.61
0.122992,0.531000,-0.206000,-0.832000,2.473000,11.282000,-0.702000,29.61
0.123413,0.533000,-0.208000,-0.832000,1.786000,11.176000,-0.718000,29.57
0.123918,0.530000,-0.215000,-0.821000,1.237000,10.366000,-0.779000,29.57
0.124430,0.541000,-0.211000,-0.824000,0.458000,9.374000,-1.191000,29.61
0.124874,0.534000,-0.209000,-0.823000,0.153000,8.351000,-1.374000,29.71
0.125310,0.541000,-0.196000,-0.826000,0.397000,7.573000,-1.038000,29.57
0.125802,0.540000,-0.204000,-0.822000,0.214000,7.176000,-0.824000,29.57
0.126255,0.532000,-0.187000,-0.821000,0.779000,7.298000,-0.305000,29.66
0.126700,0.524000,-0.193000,-0.817000,1.206000,7.206000,0.443000,29.61
0.127138,0.541000,-0.191000,-0.830000,1.893000,7.115000,1.038000,29.66
0.127568,0.538000,-0.194000,-0.823000,2.641000,7.282000,1.847000,29.57
0.127997,0.542000,-0.191000,-0.832000,3.359000,7.206000,2.656000,29.57
0.128440,0.540000,-0.199000,-0.819000,3.954000,6.718000,3.313000,29.61
0.128911,0.535000,-0.207000,-0.811000,4.168000,6.580000,3.527000,29.71
0.129426,0.533000,-0.206000,-0.810000,4.672000,6.061000,3.969000,29.57
0.129886,0.533000,-0.210000,-0.818000,4.962000,5.969000,4.290000,29.66
0.130316,0.532000,-0.218000,-0.817000,4.656000,5.771000,4.275000,29.61
0.130744,0.540000,-0.213000,-0.810000,4.901000,4.779000,4.107000,29.61
0.131162,0.541000,-0.208000,-0.816000,5.466000,5.588000,4.962000,29.71
0.131567,0.541000,-0.220000,-0.816000,5.771000,5.496000,5.374000,29.75
0.131986,0.537000,-0.219000,-0.821000,5.542000,5.221000,5.420000,29.57
0.132400,0.541000,-0.221000,-0.812000,5.344000,5.298000,5.634000,29.71
0.132813,0.545000,-0.211000,-0.812000,5.863000,5.069000,5.832000,29.61
0.133216,0.535000,-0.215000,-0.813000,6.336000,4.748000,6.183000,29.66
0.133628,0.533000,-0.235000,-0.806000,6.198000,4.656000,6.046000,29.66
0.134042,0.536000,-0.229000,-0.814000,6.244000,4.473000,6.107000,29.52
0.134448,0.539000,-0.238000,-0.814000,6.214000,4.244000,5.954000,29.52
0.134852,0.535000,-0.243000,-0.807000,5.725000,3.710000,5.908000,29.57
0.135261,0.538000,-0.243000,-0.803000,5.252000,3.237000,5.588000,29.66
0.135791,0.536000,-0.251000,-0.813000,4.840000,3.023000,5.252000,29.61
0.136367,0.541000,-0.255000,-0.802000,3.924000,2.992000,4.824000,29.61
0.136819,0.529000,-0.254000,-0.816000,3.084000,2.870000,4.412000,29.61
0.137263,0.533000,-0.252000,-0.808000,2.137000,2.748000,3.939000,29.66
0.137704,0.531000,-0.257000,-0.816000,1.695000,3.176000,4.061000,29.57
0.138191,0.535000,-0.272000,-0.802000,0.626000,3.649000,3.511000,29.71
0.138666,0.529000,-0.279000,-0.795000,-1.252000,4.122000,2.244000,29.57
0.139091,0.533000,-0.281000,-0.805000,-3.160000,4.366000,0.885000,29.57
0.139503,0.536000,-0.265000,-0.804000,-4.565000,4.809000,0.153000,29.66
0.139916,0.524000,-0.263000,-0.808000,-5.786000,5.252000,-0.382000,29.52
0.140327,0.527000,-0.241000,-0.806000,-6.198000,6.061000,-0.290000,29.52
0.140760,0.512000,-0.248000,-0.803000,-5.939000,7.496000,-0.443000,29.57
0.141183,0.523000,-0.242000,-0.811000,-5.649000,9.008000,-0.107000,29.66
0.141597,0.531000,-0.244000,-0.814000,-5.176000,10.550000,0.092000,29.61
0.142023,0.528000,-0.256000,-0.817000,-5.817000,12.855000,-0.031000,29.61
0.142440,0.537000,-0.277000,-0.808000,-7.252000,14.153000,-0.794000,29.71
0.142892,0.541000,-0.281000,-0.809000,-9.069000,16.031000,-1.847000,29.57
0.143318,0.533000,-0.311000,-0.806000,-12.122000,17.557000,-3.878000,29.57
0.143737,0.546000,-0.303000,-0.821000,-15.359000,19.527000,-6.290000,29.61
0.144163,0.546000,-0.315000,-0.835000,-17.756000,21.221000,-9.832000,29.61
0.144602,0.521000,-0.361000,-0.844000,-17.221000,22.733000,-10.992000,29.66
0.145039,0.567000,-0.277000,-0.827000,-12.733000,26.580000,-11.038000,29.66
0.145539,0.543000,-0.262000,-0.793000,-3.695000,28.321000,-11.099000,29.71
0.146075,0.535000,-0.171000,-0.861000,13.191000,31.893000,-16.000000,29.61
0.146545,0.454000,-0.332000,-1.092000,60.275000,24.458000,-41.863000,29.57
0.146973,0.534000,-0.409000,-0.846000,57.649000,10.901000,-53.115000,29.57
0.147395,0.385000,-0.286000,-0.841000,58.183000,34.382000,-56.229000,29.61
0.147812,0.419000,0.037000,-1.035000,79.084000,32.000000,-75.160000,29.52
0.148235,0.432000,0.057000,-1.124000,105.924000,18.611000,-98.351000,29.61
0.148678,0.374000,-0.144000,-1.041000,128.763000,4.916000,-123.267000,29.57
0.149143,0.343000,-0.251000,-1.018000,148.824000,-8.046000,-147.130000,29.57
0.149612,0.353000,-0.247000,-1.047000,166.550000,-21.023000,-170.214000,29.61
0.150052,0.420000,-0.167000,-1.076000,183.969000,-35.023000,-193.115000,29.57
0.150509,0.476000,-0.272000,-0.989000,194.748000,-53.008000,-214.519000,29.66
0.150956,0.502000,-0.397000,-0.871000,188.763000,-73.252000,-227.695000,29.57
0.151417,0.497000,-0.455000,-0.743000,182.290000,-84.443000,-236.137000,29.61
0.151873,0.352000,-0.628000,-0.917000,158.595000,-97.145000,-236.366000,29.61
0.152332,0.394000,-0.628000,-1.009000,132.015000,-115.573000,-232.504000,29.57
0.152789,0.280000,-0.524000,-1.001000,124.076000,-118.427000,-225.832000,29.57
0.153230,0.216000,-0.382000,-0.823000,124.748000,-119.863000,-215.466000,29.57
0.153669,0.201000,-0.392000,-0.764000,129.664000,-121.252000,-207.710000,29.71
0.154122,0.171000,-0.359000,-0.735000,126.305000,-117.298000,-202.763000,29.61
0.154587,0.177000,-0.290000,-0.725000,120.611000,-109.847000,-200.565000,29.66
0.155029,0.196000,-0.231000,-0.735000,117.282000,-100.779000,-199.939000,29.66
0.155579,0.265000,-0.227000,-0.790000,118.687000,-92.122000,-197.374000,29.61
0.156157,0.339000,-0.244000,-0.837000,125.023000,-85.542000,-190.366000,29.61
0.156635,0.434000,-0.279000,-0.891000,135.664000,-80.336000,-176.947000,29.57
0.157084,0.516000,-0.327000,-0.926000,146.794000,-76.687000,-159.298000,29.66
0.157521,0.590000,-0.364000,-0.888000,155.344000,-73.649000,-138.489000,29.61
0.157955,0.643000,-0.393000,-0.873000,157.527000,-73.008000,-117.695000,29.61
0.158387,0.673000,-0.413000,-0.833000,151.237000,-73.954000,-99.298000,29.71
0.158816,0.658000,-0.302000,-0.744000,141.481000,-70.824000,-82.351000,29.66
0.159244,0.616000,-0.167000,-0.678000,132.962000,-63.588000,-68.794000,29.57
0.159674,0.557000,0.003000,-0.600000,127.008000,-53.634000,-59.588000,29.71
0.160103,0.500000,0.116000,-0.559000,120.382000,-40.061000,-54.473000,29.61
0.160552,1.062000,-0.799000,-0.482000,28.840000,-36.809000,-76.168000,29.66
0.160988,0.495000,0.899000,-0.403000,-50.809000,-26.977000,-114.687000,29.66
0.161422,0.648000,1.047000,-0.557000,-74.260000,-18.473000,-135.924000,29.61
0.161866,0.928000,1.451000,-0.532000,-110.931000,-16.550000,-189.328000,29.66
0.162314,1.372000,1.881000,-0.982000,-67.191000,-5.588000,-175.863000,29.66
0.162773,2.506000,-0.463000,-1.524000,-45.023000,-131.573000,-107.511000,29.66
0.163204,1.010000,-0.011000,-0.803000,-10.107000,-14.519000,-10.519000,29.61
0.163622,0.581000,0.302000,-1.277000,12.916000,-38.702000,5.557000,29.71
0.164042,0.162000,-0.057000,-0.845000,21.481000,-31.618000,7.649000,29.66
0.164473,0.219000,-0.926000,-0.763000,11.053000,-17.496000,1.603000,29.66
0.164902,0.381000,-0.270000,-0.847000,-14.550000,11.771000,-10.840000,29.66
0.165311,0.605000,0.162000,-1.086000,-0.977000,4.260000,-5.679000,29.61
0.165784,0.585000,0.037000,-0.888000,13.237000,8.977000,3.405000,29.61
0.166212,0.603000,-0.199000,-0.848000,23.099000,0.076000,8.962000,29.66
0.166649,0.504000,-0.302000,-0.787000,23.069000,4.962000,7.588000,29.66
0.167066,0.529000,-0.431000,-0.754000,13.664000,10.275000,2.351000,29.71
0.167484,0.539000,-0.344000,-0.781000,5.603000,11.618000,-1.634000,29.61
0.167901,0.515000,-0.190000,-0.849000,3.237000,6.916000,-2.504000,29.66
0.168315,0.491000,-0.210000,-0.832000,2.809000,1.817000,-2.168000,29.66
0.168728,0.483000,-0.209000,-0.845000,1.206000,0.366000,-2.779000,29.61
0.169156,0.511000,-0.204000,-0.848000,-0.153000,2.809000,-3.282000,29.52
0.169599,0.497000,-0.201000,-0.828000,-1.389000,6.366000,-3.695000,29.57
0.170054,0.485000,-0.209000,-0.841000,-4.305000,8.229000,-5.023000,29.66
0.170504,0.537000,-0.226000,-0.847000,-4.580000,8.244000,-4.702000,29.71
0.170937,0.545000,-0.211000,-0.854000,-3.908000,6.260000,-3.893000,29.71
0.171402,0.534000,-0.231000,-0.826000,-3.069000,4.366000,-3.557000,29.66
0.171860,0.532000,-0.234000,-0.835000,-3.740000,3.832000,-3.588000,29.66
0.172280,0.513000,-0.221000,-0.825000,-4.702000,3.023000,-4.092000,29.57
0.172702,0.499000,-0.229000,-0.810000,-8.458000,1.969000,-5.863000,29.52
0.173130,0.478000,-0.251000,-0.805000,-13.389000,1.038000,-9.405000,29.57
0.173557,0.503000,-0.271000,-0.822000,-16.229000,1.099000,-12.046000,29.66
0.173986,0.532000,-0.230000,-0.843000,-17.221000,0.153000,-13.557000,29.57
0.174408,0.546000,-0.192000,-0.835000,-17.359000,0.183000,-13.344000,29.61
0.174838,0.535000,-0.187000,-0.846000,-17.359000,-1.664000,-12.855000,29.52
0.175267,0.505000,-0.198000,-0.825000,-17.069000,-2.458000,-13.176000,29.66
0.175814,0.505000,-0.204000,-0.838000,-16.229000,-1.176000,-13.084000,29.66
0.176424,0.524000,-0.172000,-0.853000,-14.519000,-0.076000,-12.168000,29.71
0.176898,0.530000,-0.150000,-0.843000,-13.282000,0.809000,-10.534000,29.61
0.177357,0.520000,-0.165000,-0.839000,-11.878000,1.939000,-9.237000,29.57
0.177814,0.524000,-0.168000,-0.834000,-10.366000,2.046000,-8.244000,29.66
0.178257,0.512000,-0.173000,-0.838000,-9.740000,2.534000,-7.618000,29.66
0.178697,0.514000,-0.172000,-0.837000,-8.748000,2.977000,-7.664000,29.61
0.179142,0.520000,-0.156000,-0.841000,-8.000000,2.824000,-6.855000,29.61
0.179602,0.524000,-0.173000,-0.833000,-6.809000,2.687000,-6.214000,29.66
0.180061,0.516000,-0.163000,-0.843000,-5.908000,2.809000,-5.756000,29.57
0.180499,0.517000,-0.160000,-0.843000,-4.183000,2.855000,-4.931000,29.61
0.180925,0.526000,-0.152000,-0.832000,-2.366000,3.221000,-3.771000,29.52
0.181340,0.518000,-0.146000,-0.836000,-0.962000,3.267000,-2.809000,29.57
0.181758,0.520000,-0.163000,-0.838000,-0.916000,3.115000,-2.275000,29.57
0.182173,0.522000,-0.177000,-0.844000,-1.481000,3.115000,-2.458000,29.61
0.182593,0.524000,-0.171000,-0.836000,-1.802000,2.763000,-2.351000,29.52
0.183014,0.517000,-0.167000,-0.836000,-2.183000,2.443000,-1.924000,29.71
0.183433,0.519000,-0.179000,-0.839000,-2.794000,2.672000,-2.198000,29.66
0.183847,0.511000,-0.187000,-0.830000,-3.756000,2.840000,-2.916000,29.66
0.184266,0.507000,-0.181000,-0.834000,-4.580000,2.901000,-3.466000,29.61
0.184687,0.516000,-0.181000,-0.848000,-5.053000,2.656000,-3.847000,29.66
0.185102,0.522000,-0.172000,-0.839000,-5.817000,3.206000,-4.076000,29.66
0.185617,0.520000,-0.170000,-0.842000,-6.473000,3.511000,-3.802000,29.66
0.186170,0.517000,-0.177000,-0.849000,-6.824000,4.107000,-4.061000,29.52
0.186631,0.521000,-0.185000,-0.834000,-7.603000,4.672000,-4.336000,29.61
0.187112,0.519000,-0.175000,-0.842000,-8.137000,4.641000,-4.824000,29.57
0.187574,0.526000,-0.170000,-0.833000,-7.893000,4.870000,-4.550000,29.66
0.188011,0.530000,-0.167000,-0.841000,-7.313000,4.687000,-4.198000,29.57
0.188448,0.538000,-0.172000,-0.857000,-6.550000,4.977000,-3.802000,29.71
0.188878,0.541000,-0.170000,-0.861000,-5.496000,5.298000,-2.931000,29.71
0.189292,0.548000,-0.150000,-0.859000,-4.550000,5.863000,-1.420000,29.66
0.189709,0.566000,-0.145000,-0.865000,-3.252000,4.947000,0.321000,29.57
0.190122,0.588000,-0.145000,-0.861000,-1.847000,6.611000,2.992000,29.61
0.190551,0.582000,-0.146000,-0.864000,-0.260000,7.802000,6.153000,29.71
0.190977,0.581000,-0.216000,-0.857000,0.183000,6.061000,8.321000,29.66
0.191427,0.546000,-0.232000,-0.861000,0.824000,4.443000,8.229000,29.57
0.191852,0.516000,-0.277000,-0.847000,-0.168000,3.115000,6.565000,29.52
0.192285,0.474000,-0.320000,-0.827000,-3.588000,4.061000,2.565000,29.61
0.192704,0.449000,-0.302000,-0.834000,-7.466000,7.450000,-2.718000,29.57
0.193134,0.458000,-0.239000,-0.803000,-6.504000,12.687000,-8.779000,29.66
0.193572,0.495000,-0.297000,-0.844000,-14.244000,17.786000,-14.870000,29.57
0.194005,0.559000,-0.160000,-0.852000,-10.947000,23.252000,-21.679000,29.61
0.194439,0.633000,-0.122000,-0.889000,-9.038000,17.420000,-32.840000,29.61
0.194859,0.869000,0.251000,-0.831000,49.084000,3.878000,-89.084000,29.57
0.195301,0.669000,-0.227000,-0.850000,53.344000,-16.229000,-124.244000,29.66
0.195905,0.914000,-0.624000,-0.838000,44.031000,-6.534000,-136.214000,29.52
0.196472,0.832000,-0.718000,-0.731000,29.053000,-10.916000,-129.817000,29.57
0.197114,0.655000,-0.789000,-0.599000,35.664000,-1.450000,-103.466000,29.57
0.197586,0.868000,-0.892000,-0.554000,65.802000,-8.626000,-65.893000,29.57
0.198049,0.613000,-0.945000,-0.498000,66.947000,-1.878000,-40.412000,29.61
0.198504,0.565000,-0.800000,-0.435000,60.885000,6.351000,-18.427000,29.61
0.198950,0.477000,-0.559000,-0.473000,55.191000,19.145000,-7.099000,29.66
0.199399,0.416000,-0.375000,-0.505000,54.748000,33.115000,-0.412000,29.66
0.199852,0.352000,-0.229000,-0.513000,52.031000,40.733000,0.962000,29.61
0.200337,0.327000,-0.145000,-0.585000,43.985000,46.351000,-2.397000,29.61
0.200894,0.351000,-0.064000,-0.720000,35.679000,48.382000,-7.435000,29.66
0.201386,0.392000,0.034000,-0.896000,31.084000,46.809000,-13.191000,29.57
0.201855,0.476000,0.075000,-1.080000,32.885000,39.328000,-18.855000,29.52
0.202308,0.509000,0.081000,-1.156000,37.756000,22.168000,-25.328000,29.61
0.202763,0.458000,0.050000,-1.096000,39.878000,4.183000,-31.313000,29.61
0.203217,0.365000,0.019000,-1.000000,37.908000,-8.122000,-38.336000,29.57
0.203667,0.309000,0.020000,-0.945000,38.550000,-20.840000,-44.687000,29.66
0.204151,0.323000,-0.013000,-0.931000,39.359000,-26.443000,-49.969000,29.61
0.204649,0.356000,-0.033000,-0.941000,44.397000,-36.214000,-52.656000,29.61
0.205115,0.343000,-0.032000,-0.927000,51.115000,-38.947000,-53.344000,29.57
0.205564,0.296000,-0.044000,-0.911000,53.573000,-42.397000,-54.580000,29.75
0.206111,0.294000,-0.048000,-0.906000,50.794000,-40.794000,-56.840000,29.61
0.206609,0.565000,-0.213000,-0.969000,29.176000,-46.122000,-80.198000,29.57
0.207123,0.821000,0.742000,-1.434000,-20.473000,-69.924000,-102.947000,29.57
0.207603,0.704000,1.103000,-0.773000,16.183000,-62.305000,-114.748000,29.57
0.208058,0.895000,0.464000,-0.723000,21.847000,-63.267000,-114.107000,29.61
0.208539,0.773000,-0.177000,-0.838000,22.641000,-60.962000,-99.542000,29.61
0.209029,0.626000,-0.445000,-0.745000,12.443000,-46.931000,-54.916000,29.57
0.209504,0.371000,-0.480000,-0.754000,-12.885000,-25.634000,-3.939000,29.57
0.209948,0.281000,-0.009000,-0.979000,0.214000,-3.176000,5.298000,29.66
0.210393,0.363000,0.230000,-1.120000,1.405000,-11.450000,-1.099000,29.61
0.210890,0.544000,-0.289000,-0.865000,5.481000,-13.206000,-2.656000,29.61
0.211372,0.605000,-0.436000,-0.762000,7.328000,-3.832000,-0.641000,29.57
0.211799,0.601000,-0.106000,-0.900000,7.924000,6.275000,2.137000,29.66
0.212220,0.562000,-0.134000,-0.854000,11.481000,8.733000,4.290000,29.61
0.212650,0.516000,-0.216000,-0.811000,13.435000,13.023000,5.817000,29.61
0.213106,0.520000,-0.211000,-0.856000,12.962000,11.099000,4.382000,29.61
0.213550,0.580000,-0.327000,-0.804000,9.466000,7.176000,2.397000,29.66
0.213971,0.604000,-0.307000,-0.794000,3.725000,4.504000,-0.733000,29.66
0.214399,0.560000,-0.214000,-0.825000,0.489000,1.817000,-1.847000,29.61
0.214830,0.531000,-0.172000,-0.822000,-0.901000,-1.313000,-2.122000,29.61
0.215254,0.534000,-0.167000,-0.837000,-1.481000,-4.580000,-1.618000,29.57
0.215699,0.544000,-0.155000,-0.832000,-0.321000,-3.740000,-0.901000,29.66
0.216137,0.499000,-0.167000,-0.824000,1.420000,-2.550000,-1.084000,29.61
0.216553,0.508000,-0.186000,-0.845000,2.244000,0.244000,-1.832000,29.61
0.217012,0.512000,-0.173000,-0.844000,2.290000,2.489000,-2.000000,29.66
0.217425,0.524000,-0.162000,-0.841000,2.870000,3.237000,-1.023000,29.57
0.217833,0.524000,-0.151000,-0.843000,4.947000,3.527000,0.565000,29.52
0.218339,0.523000,-0.151000,-0.855000,6.947000,3.420000,1.878000,29.61
0.218908,0.508000,-0.164000,-0.843000,8.626000,5.298000,2.718000,29.66
0.219375,0.516000,-0.180000,-0.832000,9.221000,7.908000,3.359000,29.66
0.219810,0.511000,-0.198000,-0.832000,9.282000,10.244000,3.405000,29.57
0.220258,0.527000,-0.214000,-0.831000,8.412000,11.023000,3.298000,29.52
0.220781,0.542000,-0.222000,-0.823000,6.748000,10.076000,2.504000,29.57
0.221238,0.520000,-0.219000,-0.821000,5.786000,8.580000,1.466000,29.66
0.221704,0.528000,-0.234000,-0.812000,3.802000,7.221000,0.412000,29.66
0.222120,0.521000,-0.224000,-0.813000,2.290000,5.832000,-1.038000,29.61
0.222526,0.530000,-0.213000,-0.819000,0.733000,5.328000,-1.908000,29.61
0.222938,0.523000,-0.204000,-0.818000,-0.076000,5.298000,-2.916000,29.66
0.223371,0.526000,-0.192000,-0.829000,-0.275000,5.344000,-3.115000,29.66
0.223791,0.527000,-0.179000,-0.823000,-0.214000,5.847000,-2.870000,29.71
0.224193,0.533000,-0.189000,-0.840000,0.122000,6.534000,-2.321000,29.61
0.224603,0.535000,-0.177000,-0.830000,0.763000,6.519000,-1.725000,29.66
0.225012,0.540000,-0.187000,-0.833000,1.176000,5.832000,-1.313000,29.66
0.225419,0.541000,-0.189000,-0.837000,1.313000,5.634000,-0.458000,29.61
0.225837,0.543000,-0.188000,-0.823000,1.710000,4.931000,-0.198000,29.61
0.226260,0.536000,-0.198000,-0.828000,1.664000,4.168000,0.198000,29.57
0.226665,0.541000,-0.199000,-0.821000,1.313000,4.061000,0.382000,29.66
0.227067,0.544000,-0.197000,-0.819000,1.237000,3.618000,0.244000,29.66
0.227469,0.521000,-0.210000,-0.824000,1.023000,2.382000,0.000000,29.71
0.227882,0.525000,-0.212000,-0.822000,0.183000,4.580000,-0.336000,29.71
0.228307,0.537000,-0.204000,-0.819000,-0.321000,2.824000,-0.992000,29.66
0.228905,0.533000,-0.206000,-0.823000,-0.672000,2.229000,-1.130000,29.57
0.229382,0.536000,-0.196000,-0.832000,-0.962000,1.802000,-1.160000,29.61
0.229865,0.526000,-0.197000,-0.818000,-1.023000,1.802000,-0.931000,29.57
0.230300,0.528000,-0.200000,-0.825000,-0.855000,2.168000,-0.901000,29.66
0.230787,0.535000,-0.204000,-0.829000,-1.084000,2.718000,-0.779000,29.57
0.231312,0.532000,-0.201000,-0.823000,-1.405000,3.313000,-0.947000,29.61
0.231754,0.523000,-0.202000,-0.826000,-1.573000,3.359000,-0.824000,29.52
0.232194,0.528000,-0.210000,-0.816000,-1.985000,3.221000,-1.115000,29.57
0.232630,0.528000,-0.203000,-0.825000,-2.366000,3.084000,-1.191000,29.57
0.233065,0.527000,-0.206000,-0.833000,-2.794000,2.962000,-1.542000,29.57
0.233504,0.531000,-0.205000,-0.822000,-3.237000,3.069000,-1.786000,29.61
0.233939,0.531000,-0.208000,-0.824000,-3.603000,2.901000,-2.336000,29.61
0.234402,0.531000,-0.206000,-0.821000,-4.122000,2.947000,-2.351000,29.66
0.234841,0.535000,-0.208000,-0.816000,-4.748000,2.763000,-2.519000,29.57
0.235277,0.529000,-0.203000,-0.815000,-5.084000,2.183000,-2.931000,29.61
0.235737,0.535000,-0.205000,-0.819000,-5.374000,1.344000,-3.420000,29.52
0.236189,0.533000,-0.203000,-0.824000,-5.939000,1.496000,-3.588000,29.66
0.236633,0.530000,-0.192000,-0.822000,-6.015000,1.466000,-3.573000,29.57
0.237071,0.531000,-0.198000,-0.818000,-6.321000,1.511000,-3.679000,29.61
0.237509,0.535000,-0.181000,-0.827000,-5.771000,1.664000,-3.405000,29.61
0.237965,0.528000,-0.185000,-0.827000,-5.252000,2.122000,-3.313000,29.47
0.238494,0.523000,-0.181000,-0.825000,-4.366000,2.702000,-2.733000,29.57
0.239029,0.539000,-0.188000,-0.832000,-4.244000,2.809000,-2.473000,29.61
0.239502,0.531000,-0.196000,-0.830000,-3.802000,2.748000,-2.580000,29.61
0.239944,0.542000,-0.188000,-0.821000,-3.939000,2.458000,-2.366000,29.61
0.240382,0.532000,-0.185000,-0.822000,-3.740000,2.550000,-2.366000,29.66
0.240876,0.532000,-0.189000,-0.814000,-3.679000,2.534000,-2.092000,29.57
0.241327,0.527000,-0.194000,-0.817000,-3.588000,2.595000,-2.336000,29.52
0.241785,0.524000,-0.192000,-0.817000,-3.664000,2.595000,-2.489000,29.66
0.242245,0.528000,-0.188000,-0.821000,-3.511000,2.336000,-2.305000,29.66
0.242728,0.519000,-0.188000,-0.828000,-3.588000,2.458000,-2.260000,29.66
0.243166,0.533000,-0.186000,-0.834000,-3.206000,2.473000,-2.137000,29.61
0.243628,0.532000,-0.185000,-0.838000,-2.840000,2.519000,-1.908000,29.52
0.244066,0.540000,-0.187000,-0.824000,-2.305000,2.656000,-1.496000,29.66
0.244509,0.534000,-0.179000,-0.827000,-2.015000,2.656000,-1.084000,29.66
0.244944,0.526000,-0.184000,-0.823000,-1.725000,2.305000,-0.901000,29.57
0.245381,0.521000,-0.182000,-0.824000,-1.695000,2.229000,-0.885000,29.71
0.245895,0.528000,-0.189000,-0.832000,-1.481000,2.580000,-1.115000,29.52
0.246399,0.533000,-0.185000,-0.826000,-1.588000,2.916000,-1.038000,29.57
0.246848,0.536000,-0.184000,-0.827000,-1.359000,2.916000,-0.702000,29.66
0.247277,0.541000,-0.185000,-0.837000,-0.748000,3.130000,-0.244000,29.61
0.247703,0.549000,-0.186000,-0.833000,0.840000,3.206000,0.534000,29.61
0.248127,0.560000,-0.154000,-0.844000,4.748000,3.634000,3.496000,29.57
0.248594,0.564000,-0.153000,-0.864000,10.183000,3.710000,6.443000,29.57
0.249109,0.590000,-0.143000,-0.902000,19.313000,5.267000,11.466000,29.61
0.249552,0.611000,-0.107000,-0.893000,32.305000,5.847000,17.679000,29.61
0.249990,0.596000,-0.143000,-0.847000,41.282000,2.901000,22.260000,29.57
0.250427,0.636000,-0.115000,-0.900000,47.069000,0.473000,26.748000,29.57
0.250894,0.601000,-0.153000,-0.843000,50.153000,-4.336000,29.786000,29.61
0.251353,0.612000,-0.228000,-0.886000,54.824000,-5.542000,32.458000,29.71
0.251799,0.683000,-0.193000,-1.023000,71.298000,-9.634000,39.634000,29.61
0.252245,0.717000,-0.142000,-1.019000,96.198000,-17.282000,50.076000,29.66
0.252696,0.603000,-0.283000,-0.898000,109.221000,-20.107000,54.763000,29.66
0.253141,0.629000,-0.287000,-0.975000,113.527000,-27.405000,59.573000,29.61
0.253590,0.493000,-0.299000,-0.780000,102.015000,-34.443000,57.725000,29.66
0.258541,0.460000,-0.405000,-0.735000,92.794000,-39.481000,54.214000,29.57
0.268591,0.470000,-0.405000,-0.744000,81.405000,-43.313000,52.351000,29.66
0.278535,0.401000,-0.418000,-0.714000,71.267000,-42.382000,46.458000,29.71
0.288555,0.429000,-0.433000,-0.706000,63.939000,-42.824000,43.725000,29.61
0.298513,0.321000,-0.415000,-0.624000,52.290000,-40.366000,36.840000,29.66
0.308590,0.308000,-0.504000,-0.619000,41.847000,-34.763000,29.573000,29.57
0.318603,0.340000,-0.511000,-0.647000,34.580000,-29.160000,25.267000,29.66
0.328581,0.285000,-0.442000,-0.653000,25.969000,-21.695000,19.664000,29.61
0.338575,0.285000,-0.482000,-0.705000,18.763000,-14.076000,14.427000,29.61
0.348619,0.296000,-0.505000,-0.695000,12.122000,-7.176000,10.076000,29.57
0.358622,0.293000,-0.482000,-0.666000,2.672000,-2.137000,3.313000,29.66
0.368643,0.311000,-0.561000,-0.670000,-8.901000,3.145000,-3.802000,29.61
0.378678,0.370000,-0.617000,-0.682000,-24.916000,5.374000,-10.733000,29.61
0.388677,0.350000,-0.625000,-0.588000,-44.031000,10.107000,-18.962000,29.57
0.398773,0.293000,-0.792000,-0.525000,-67.924000,16.046000,-30.183000,29.57
0.408787,0.055000,-0.776000,-0.438000,-92.122000,27.389000,-43.420000,29.66
0.418831,-0.066000,-0.691000,-0.467000,-115.298000,44.183000,-58.672000,29.61
0.428897,-0.164000,-0.619000,-0.567000,-134.687000,64.351000,-76.244000,29.61
0.438784,0.000000,-0.473000,-0.800000,-150.931000,77.603000,-93.084000,29.57
0.448930,0.052000,-0.507000,-0.916000,-151.939000,86.748000,-92.229000,29.66
0.459003,-0.826000,-1.152000,-1.691000,-154.229000,127.069000,-67.893000,29.61
0.468963,0.461000,-1.851000,-2.314000,-63.954000,158.611000,3.038000,29.52
0.479041,-0.259000,-2.746000,-1.430000,-72.366000,151.084000,57.771000,29.57
0.488836,-0.516000,-1.910000,-1.435000,-100.733000,159.191000,105.771000,29.66
0.498874,-0.608000,-0.864000,-1.759000,-71.664000,142.718000,129.405000,29.52
0.509038,-0.625000,-0.601000,-1.830000,-44.198000,114.427000,128.550000,29.57
0.518953,-0.705000,-0.400000,-1.761000,-42.718000,71.435000,106.076000,29.57
0.529063,-0.673000,-0.026000,-1.729000,-44.489000,30.153000,69.954000,29.66
0.538960,-0.622000,0.125000,-1.657000,-37.634000,-4.626000,33.221000,29.61
0.549063,-0.492000,0.059000,-1.473000,-35.588000,-32.031000,1.160000,29.61
0.559097,-0.276000,-0.121000,-1.413000,-39.420000,-56.076000,-21.695000,29.57
0.568927,-0.014000,-0.347000,-1.343000,-41.985000,-77.878000,-32.489000,29.57
0.578918,0.296000,-0.549000,-1.317000,-40.656000,-103.527000,-24.076000,29.57
0.589113,0.428000,-0.645000,-1.071000,-36.000000,-122.229000,-0.550000,29.61
0.598896,0.504000,-0.636000,-0.711000,-31.038000,-120.885000,31.908000,29.61
0.608787,0.628000,-0.528000,-0.506000,-23.176000,-109.130000,65.924000,29.57
0.618656,0.783000,-0.385000,-0.430000,-18.092000,-88.672000,96.687000,29.57
0.628626,0.942000,-0.236000,-0.469000,-12.382000,-68.992000,119.344000,29.61
0.638604,1.173000,0.020000,-0.669000,-3.908000,-59.053000,134.855000,29.61
0.648627,1.229000,0.331000,-0.646000,3.328000,-56.916000,135.817000,29.57
0.658648,1.200000,0.627000,-0.544000,6.229000,-57.038000,115.573000,29.57
0.668644,1.225000,0.914000,-0.498000,8.611000,-59.588000,76.214000,29.66
0.678648,1.353000,1.022000,-0.552000,15.328000,-65.252000,26.443000,29.61
0.688716,1.479000,0.987000,-0.614000,26.046000,-72.107000,-21.115000,29.61
0.698734,1.626000,0.866000,-0.637000,35.344000,-73.847000,-58.794000,29.66
0.708822,1.734000,0.749000,-0.433000,56.901000,-104.076000,-88.168000,29.66
0.718738,1.592000,0.624000,-0.226000,49.252000,-89.282000,-105.298000,29.71
0.728727,1.551000,0.438000,-0.095000,43.725000,-86.550000,-117.878000,29.71
0.738760,1.525000,0.263000,-0.149000,31.557000,-64.351000,-120.580000,29.47
0.748741,1.499000,0.033000,-0.274000,24.382000,-51.328000,-110.504000,29.66
0.758793,1.338000,-0.139000,-0.235000,17.267000,-39.405000,-92.198000,29.61
0.768851,0.810000,0.314000,0.261000,39.328000,-2.687000,-70.733000,29.61
0.778755,1.039000,-0.192000,0.887000,57.695000,15.634000,-43.145000,29.61
0.788769,0.645000,-1.136000,0.222000,72.901000,76.870000,-14.855000,29.57
0.798805,1.181000,-1.305000,-1.092000,55.710000,62.870000,6.275000,29.66
0.808867,0.581000,-1.391000,-1.012000,24.489000,43.588000,7.084000,29.61
0.818889,0.312000,-0.775000,-0.855000,11.466000,57.282000,-3.298000,29.57
0.828899,0.828000,-0.198000,-1.527000,8.870000,62.336000,-3.618000,29.66
0.838924,0.874000,0.323000,-1.591000,12.061000,22.687000,-6.687000,29.57
0.848983,0.587000,0.274000,-0.943000,40.656000,8.656000,-24.366000,29.52
0.859071,0.288000,-0.259000,-0.600000,28.718000,22.305000,-27.802000,29.61
0.869122,0.285000,-0.605000,-0.592000,25.053000,16.992000,-23.008000,29.66
0.879051,0.381000,-0.426000,-0.668000,11.267000,23.359000,-21.252000,29.66
0.888935,0.509000,-0.076000,-0.949000,6.519000,32.977000,-25.802000,29.66
0.899146,0.657000,-0.135000,-1.163000,2.641000,34.443000,-27.328000,29.61
0.909125,0.531000,-0.311000,-0.988000,5.527000,44.351000,-22.458000,29.61
0.919117,0.516000,-0.530000,-0.835000,5.145000,38.992000,-18.992000,29.57
0.929173,0.724000,-0.697000,-0.954000,6.550000,33.252000,-13.069000,29.57
0.939197,0.626000,-0.494000,-0.901000,2.641000,28.748000,-9.038000,29.61
0.949247,0.486000,-0.413000,-0.842000,-3.206000,26.397000,-8.824000,29.61
0.959209,0.430000,-0.488000,-0.714000,-7.176000,20.397000,-10.382000,29.66
0.969310,0.430000,-0.513000,-0.729000,-12.962000,17.954000,-12.504000,29.66
0.979233,0.408000,-0.368000,-0.766000,-18.962000,18.687000,-15.725000,29.71
0.989233,0.326000,-0.332000,-0.718000,-31.695000,26.824000,-21.115000,29.61
0.999309,0.328000,-0.342000,-0.651000,-46.794000,34.656000,-27.115000,29.71
1.009123,0.299000,-0.355000,-0.648000,-66.824000,40.336000,-33.298000,29.66
1.018966,0.375000,-0.461000,-0.740000,-80.641000,46.473000,-38.870000,29.66
1.028825,0.648000,-0.365000,-0.994000,-78.702000,42.397000,-39.328000,29.61
1.038745,0.541000,-0.209000,-0.932000,-70.214000,34.916000,-37.206000,29.61
1.048629,0.638000,-0.186000,-0.951000,-58.107000,33.389000,-33.359000,29.57
1.058631,0.513000,-0.186000,-0.838000,-45.939000,21.725000,-31.298000,29.47
1.068607,0.525000,-0.286000,-0.826000,-41.481000,20.595000,-32.137000,29.61
1.078555,0.559000,-0.085000,-0.890000,-35.679000,16.870000,-32.779000,29.52
1.088576,0.585000,-0.294000,-0.795000,-36.031000,27.038000,-33.069000,29.66
1.098584,0.511000,-0.204000,-0.849000,-38.031000,24.397000,-35.252000,29.57
1.108601,0.468000,-0.260000,-0.823000,-39.298000,25.374000,-38.809000,29.61
1.118621,0.535000,-0.174000,-0.830000,-37.618000,26.901000,-38.733000,29.61
1.128566,0.544000,-0.123000,-0.847000,-32.366000,28.855000,-37.130000,29.66
1.138580,0.555000,-0.115000,-0.859000,-26.092000,36.763000,-36.809000,29.57
1.148565,0.542000,-0.196000,-0.822000,-27.527000,45.573000,-34.168000,29.57
1.158596,0.651000,-0.184000,-0.928000,-16.443000,38.916000,-40.992000,29.71
1.168540,0.722000,0.055000,-0.976000,-9.252000,72.366000,-47.496000,29.61
1.178622,0.465000,-0.431000,-0.882000,-35.756000,91.939000,-41.328000,29.66
1.188584,0.659000,-0.224000,-0.920000,-41.023000,107.191000,-39.420000,29.57
1.198620,0.552000,-0.285000,-0.864000,-44.443000,139.557000,-36.840000,29.61
1.208606,0.527000,-0.187000,-0.901000,-53.695000,170.580000,-34.916000,29.52
1.218731,0.454000,-0.224000,-0.850000,-56.290000,192.183000,-45.756000,29.66
1.228788,0.388000,-0.180000,-0.918000,-59.252000,222.672000,-67.695000,29.47
1.238639,0.479000,-0.106000,-0.886000,-62.382000,241.603000,-84.565000,29.57
1.248660,0.568000,-0.007000,-0.927000,-55.573000,272.718000,-102.977000,29.61
1.258649,0.652000,-0.104000,-0.932000,-53.679000,277.481000,-118.076000,29.61
1.268662,0.470000,-0.034000,-0.815000,-65.847000,294.336000,-141.679000,29.66
1.278737,0.835000,-0.076000,-0.779000,-64.198000,363.863000,-167.954000,29.66
1.288764,1.200000,-0.450000,-1.156000,-68.458000,373.740000,-180.687000,29.52
1.298750,1.448000,-0.423000,-1.385000,-35.786000,424.687000,-180.382000,29.71
1.308711,2.245000,-0.664000,-1.776000,18.153000,409.969000,-169.435000,29.57
1.318786,2.723000,-0.268000,-2.366000,16.763000,387.084000,-178.534000,29.66
1.328811,2.425000,-0.953000,-2.379000,-5.771000,345.038000,-214.458000,29.61
1.338789,2.029000,-1.089000,-2.310000,-51.130000,284.702000,-236.672000,29.61
1.348693,0.981000,-1.106000,-1.919000,-85.634000,202.321000,-221.344000,29.57
1.358676,-0.994000,-1.417000,-3.978000,33.527000,103.023000,-90.626000,29.66
1.368589,2.630000,-2.742000,-4.000000,47.786000,-2.611000,2.427000,29.66
1.378581,-0.273000,-2.846000,-1.950000,-36.779000,-88.550000,41.099000,29.71
1.388650,-0.540000,-1.873000,-1.559000,-90.779000,-113.802000,68.534000,29.66
1.398519,-0.126000,-1.131000,-1.784000,-91.847000,-164.076000,103.985000,29.66
1.408876,-0.340000,-0.674000,-1.666000,-56.824000,-172.595000,128.351000,29.66
1.419073,-0.203000,-0.577000,-1.674000,-25.542000,-194.015000,135.466000,29.61
1.428971,-0.125000,-0.509000,-1.416000,-11.679000,-223.924000,126.992000,29.71
1.438772,-0.174000,-0.361000,-1.158000,-9.664000,-237.069000,107.817000,29.57
1.448725,-0.083000,-0.192000,-1.039000,-8.092000,-246.534000,85.237000,29.57
1.458579,0.090000,-0.107000,-1.027000,0.977000,-253.802000,65.344000,29.71
1.468592,0.314000,-0.081000,-1.111000,16.031000,-260.901000,49.603000,29.71
1.478581,0.507000,-0.170000,-1.151000,31.359000,-274.137000,40.031000,29.57
1.488718,0.640000,-0.286000,-1.133000,43.664000,-287.908000,37.115000,29.66
1.498565,0.765000,-0.323000,-1.061000,57.023000,-298.031000,41.298000,29.71
1.508518,0.843000,-0.321000,-0.976000,72.977000,-298.092000,54.183000,29.71
1.518522,0.924000,-0.313000,-0.926000,89.618000,-293.771000,70.977000,29.57
1.528793,1.044000,-0.290000,-0.931000,105.176000,-287.420000,88.198000,29.66
1.538607,1.123000,-0.263000,-0.951000,116.137000,-278.794000,100.992000,29.52
1.548535,1.231000,-0.192000,-1.035000,126.061000,-271.130000,107.221000,29.61
1.558538,1.435000,-0.138000,-1.180000,134.519000,-264.321000,113.374000,29.57
1.568577,1.576000,-0.100000,-1.233000,143.282000,-261.786000,121.634000,29.66
1.578609,1.751000,-0.039000,-1.215000,151.832000,-258.458000,130.031000,29.57
1.589091,1.936000,-0.019000,-1.149000,155.389000,-251.695000,140.504000,29.61
1.603762,2.113000,0.107000,-1.048000,156.397000,-242.443000,149.511000,29.57
1.608577,2.350000,0.302000,-0.916000,156.412000,-226.672000,154.611000,29.57
1.618581,2.475000,0.521000,-0.821000,160.107000,-215.221000,156.397000,29.66
1.628648,2.521000,0.713000,-0.730000,165.649000,-195.573000,156.336000,29.61
1.638689,2.596000,0.861000,-0.659000,169.496000,-181.573000,156.000000,29.61
1.648647,2.695000,0.969000,-0.691000,166.382000,-151.420000,153.893000,29.57
1.658758,2.961000,0.969000,-0.483000,155.008000,-151.359000,148.321000,29.66
1.668719,2.888000,1.156000,-0.042000,148.397000,-144.153000,133.481000,29.61
1.678735,2.760000,1.240000,0.317000,136.092000,-119.405000,106.611000,29.61
1.688814,2.690000,1.275000,0.580000,120.122000,-92.916000,75.008000,29.57
1.698747,2.678000,1.167000,0.630000,100.015000,-58.046000,46.947000,29.66
1.708721,2.664000,1.077000,0.653000,75.557000,-20.809000,30.458000,29.71
1.718798,2.567000,0.955000,0.573000,55.832000,15.130000,21.359000,29.52
1.728765,2.429000,0.902000,0.520000,37.069000,51.511000,17.786000,29.57
1.738808,2.211000,0.616000,0.336000,21.008000,78.809000,9.313000,29.57
1.748971,0.056000,-0.121000,-0.085000,-51.893000,120.840000,-9.573000,29.57
1.758839,0.385000,-1.184000,-2.141000,-70.137000,102.626000,30.534000,29.71
1.768851,-0.771000,-0.788000,-1.524000,-70.229000,15.344000,22.672000,29.52
1.779078,-0.353000,-0.211000,-0.334000,-97.328000,45.969000,-24.366000,29.66
1.788839,0.492000,0.257000,-0.603000,-80.336000,55.496000,-40.260000,29.66
1.799004,0.243000,0.503000,-0.904000,-61.756000,93.542000,-27.634000,29.61
1.809082,0.248000,0.819000,-1.473000,-37.420000,141.359000,-48.183000,29.66
1.818918,0.409000,0.751000,-1.973000,-12.107000,134.412000,-84.061000,29.66
1.829052,1.036000,0.442000,-1.959000,26.061000,117.328000,-96.198000,29.66
1.838858,0.841000,-0.054000,-1.208000,45.649000,114.183000,-80.794000,29.61
1.848962,0.603000,-0.446000,-1.026000,56.244000,113.588000,-68.031000,29.61
1.858991,0.748000,-0.675000,-1.041000,48.366000,109.267000,-65.695000,29.57
1.868971,1.073000,-0.896000,-0.882000,30.733000,89.786000,-53.206000,29.66
1.878937,1.013000,-1.019000,-0.827000,7.847000,76.947000,-43.771000,29.61
1.888880,0.791000,-0.929000,-0.729000,-7.298000,58.260000,-32.458000,29.61
1.898976,0.624000,-0.780000,-0.785000,-25.969000,42.779000,-35.389000,29.57
1.908927,0.584000,-0.701000,-0.781000,-40.382000,23.267000,-36.779000,29.57
1.918769,0.338000,-0.530000,-0.598000,-50.382000,20.489000,-38.901000,29.61
1.928666,0.173000,-0.349000,-0.577000,-62.748000,21.191000,-44.779000,29.61
1.938665,0.156000,-0.100000,-0.609000,-87.725000,20.229000,-54.763000,29.61
1.948673,0.310000,-0.219000,-0.788000,-115.069000,30.916000,-60.519000,29.66
1.958655,0.497000,-0.523000,-1.034000,-113.481000,52.458000,-56.901000,29.57
1.968760,0.594000,-0.519000,-1.091000,-98.183000,64.061000,-50.763000,29.61
1.978858,0.610000,-0.294000,-1.047000,-82.168000,61.084000,-44.885000,29.52
1.988684,0.567000,-0.425000,-0.861000,-68.534000,54.687000,-41.496000,29.47
1.998732,0.537000,-0.552000,-0.751000,-73.374000,54.458000,-46.947000,29.57
2.009176,0.678000,-0.342000,-0.982000,-73.496000,49.023000,-51.466000,29.52
2.018678,0.564000,-0.507000,-0.743000,-80.534000,39.679000,-59.023000,29.57
2.028622,0.560000,-0.318000,-0.878000,-83.282000,31.847000,-64.076000,29.57
2.038615,0.619000,-0.164000,-0.987000,-69.786000,13.130000,-60.992000,29.47
2.048634,0.585000,-0.207000,-0.858000,-62.824000,5.450000,-56.870000,29.61
2.058610,0.564000,-0.107000,-0.918000,-53.313000,5.710000,-51.359000,29.52
2.068633,0.580000,-0.140000,-0.895000,-46.321000,10.824000,-46.351000,29.66
2.078622,0.508000,-0.135000,-0.854000,-39.725000,15.557000,-43.924000,29.66
2.088727,0.429000,-0.217000,-0.847000,-36.748000,30.000000,-39.145000,29.61
2.098712,0.549000,-0.129000,-0.859000,-30.962000,39.221000,-36.550000,29.61
2.108737,0.577000,-0.134000,-0.856000,-24.794000,46.305000,-35.756000,29.66
2.118729,0.399000,-0.539000,-0.756000,-17.191000,60.412000,-39.115000,29.57
2.128834,0.558000,0.090000,-0.924000,-23.466000,78.031000,-36.305000,29.57
2.138767,0.487000,-0.236000,-0.837000,-24.519000,86.260000,-32.687000,29.61
2.148848,0.520000,-0.037000,-0.897000,-22.611000,106.244000,-30.290000,29.61
2.158867,0.618000,-0.150000,-0.870000,-24.718000,110.000000,-25.466000,29.57
2.168914,0.538000,-0.119000,-0.867000,-25.802000,141.527000,-26.122000,29.66
2.178890,0.546000,-0.151000,-0.843000,-26.779000,168.366000,-27.496000,29.61
2.188949,0.462000,-0.113000,-0.814000,-30.748000,199.511000,-36.092000,29.61
2.198942,0.437000,-0.105000,-0.766000,-30.885000,223.481000,-46.931000,29.66
2.208919,0.570000,-0.050000,-0.799000,-36.244000,241.115000,-54.321000,29.66
2.219078,0.547000,-0.000000,-0.791000,-27.084000,259.450000,-57.252000,29.61
2.228872,0.585000,-0.101000,-0.746000,-33.679000,278.336000,-67.374000,29.66
2.238911,0.698000,-0.130000,-0.845000,-46.687000,302.611000,-79.802000,29.66
2.248968,0.670000,-0.226000,-0.760000,-63.771000,316.916000,-99.374000,29.57
2.258999,0.923000,-0.197000,-0.882000,-70.015000,341.511000,-111.344000,29.61
2.268981,1.247000,-0.302000,-0.985000,-44.260000,368.916000,-115.939000,29.61
2.278944,1.520000,-0.434000,-1.302000,6.061000,393.053000,-104.580000,29.66
2.288967,2.173000,-0.281000,-1.729000,90.031000,406.336000,-84.015000,29.66
2.298960,2.572000,-0.426000,-1.971000,131.405000,398.290000,-84.824000,29.57
2.308870,1.948000,-0.283000,-2.107000,98.260000,411.206000,-126.718000,29.61
2.319018,2.275000,-0.587000,-2.682000,33.771000,372.672000,-176.702000,29.61
2.328922,1.756000,-1.004000,-2.867000,-13.282000,311.191000,-185.221000,29.57
2.338960,0.367000,-1.480000,-2.933000,-22.565000,177.725000,-139.237000,29.57
2.349051,0.686000,-3.755000,-4.000000,36.733000,93.710000,11.023000,29.52
2.359042,1.586000,-3.059000,-4.000000,-111.878000,-124.962000,41.359000,29.61
2.369110,-1.492000,-2.134000,-1.612000,-191.725000,-165.496000,37.069000,29.57
2.378952,-0.830000,-0.981000,-1.719000,-189.328000,-200.855000,29.695000,29.66
2.388932,-0.105000,-0.349000,-2.097000,-130.595000,-240.489000,20.229000,29.57
2.399050,-0.128000,-0.530000,-2.039000,-67.115000,-262.763000,11.924000,29.61
2.409105,-0.001000,-0.713000,-1.885000,-41.389000,-293.206000,-4.824000,29.71
2.419068,0.090000,-0.672000,-1.506000,-38.992000,-321.695000,-31.450000,29.66
2.428929,0.166000,-0.445000,-1.264000,-21.878000,-334.779000,-51.481000,29.57
2.439059,0.459000,-0.326000,-1.185000,18.748000,-338.321000,-55.038000,29.61
2.448745,0.750000,-0.395000,-1.074000,64.305000,-342.672000,-43.664000,29.61
2.458979,0.869000,-0.575000,-0.904000,96.870000,-347.542000,-27.176000,29.66
2.468904,0.862000,-0.696000,-0.809000,107.405000,-338.718000,-8.214000,29.57
2.479045,0.868000,-0.656000,-0.722000,118.977000,-329.527000,10.611000,29.61
2.488935,0.943000,-0.541000,-0.735000,133.450000,-308.748000,34.305000,29.52
2.499147,1.031000,-0.428000,-0.901000,159.985000,-294.672000,56.977000,29.66
2.509110,1.281000,-0.503000,-1.141000,186.412000,-288.382000,81.527000,29.57
2.519323,1.479000,-0.493000,-1.233000,199.099000,-282.504000,110.672000,29.52
2.529042,1.620000,-0.391000,-1.173000,203.420000,-272.947000,145.817000,29.61
2.539238,1.609000,-0.185000,-1.146000,201.023000,-258.015000,172.779000,29.57
2.549201,1.695000,0.169000,-1.215000,199.359000,-241.954000,197.405000,29.57
2.559118,1.807000,0.517000,-1.298000,197.603000,-228.214000,218.351000,29.57
2.569297,2.012000,0.682000,-1.421000,193.893000,-222.061000,230.427000,29.61
2.579084,2.392000,0.704000,-1.644000,172.977000,-211.817000,237.099000,29.61
2.588998,2.887000,0.751000,-1.691000,149.725000,-224.916000,236.962000,29.57
2.599154,3.230000,0.782000,-1.217000,131.481000,-249.664000,229.527000,29.57
2.609169,3.343000,0.830000,-0.575000,114.336000,-261.237000,215.206000,29.61
2.619051,3.247000,0.894000,0.092000,85.496000,-234.168000,196.458000,29.61
2.628942,3.299000,1.021000,0.560000,64.229000,-189.863000,180.214000,29.66
2.638984,3.426000,1.175000,0.967000,50.412000,-128.595000,172.809000,29.66
2.649051,3.590000,1.442000,1.199000,41.847000,-74.489000,169.527000,29.52
2.659007,3.611000,1.809000,1.333000,41.221000,-20.580000,152.244000,29.61
2.668910,3.172000,2.086000,1.326000,42.412000,14.870000,108.198000,29.66
2.678814,3.556000,2.113000,1.801000,-3.359000,74.275000,16.870000,29.57
2.688931,3.331000,1.592000,1.209000,-62.809000,128.336000,-82.076000,29.61
2.698944,1.841000,0.154000,-2.475000,-81.618000,175.618000,-87.542000,29.61
2.708972,0.177000,-0.787000,-2.874000,-29.145000,4.641000,-76.809000,29.61
2.719017,-1.259000,-1.865000,0.111000,-30.366000,26.641000,-83.817000,29.57
2.729027,-0.420000,-1.812000,0.583000,-40.351000,64.336000,-87.237000,29.57
2.738965,1.248000,-0.953000,-0.660000,-20.290000,159.008000,-29.282000,29.71
2.751959,1.086000,0.577000,-1.392000,-9.405000,183.710000,-19.313000,29.57
2.758698,0.566000,1.586000,-2.205000,18.260000,167.053000,-57.542000,29.57
2.768698,0.769000,1.090000,-2.124000,57.954000,118.015000,-82.443000,29.66
2.778936,-0.580000,1.933000,-2.760000,162.885000,122.229000,-101.939000,29.61
2.788893,0.635000,-1.462000,-0.795000,54.153000,134.031000,-51.405000,29.61
2.798850,1.039000,-1.172000,-0.872000,32.443000,96.412000,-40.122000,29.57
2.808877,0.889000,-0.342000,-1.150000,15.313000,68.046000,-38.290000,29.57
2.818977,0.883000,-0.559000,-1.000000,-2.885000,49.573000,-34.565000,29.61
2.828755,0.663000,-0.917000,-0.599000,-25.527000,36.504000,-33.374000,29.61
2.838739,0.518000,-0.832000,-0.628000,-45.817000,20.763000,-35.924000,29.66
2.848659,0.359000,-0.459000,-0.678000,-71.878000,19.603000,-44.473000,29.57
2.858601,0.164000,-0.391000,-0.535000,-95.847000,22.122000,-54.168000,29.61
2.868571,0.188000,-0.549000,-0.620000,-120.351000,41.924000,-67.328000,29.61
2.878553,0.484000,-0.580000,-1.015000,-125.634000,57.099000,-69.893000,29.66
2.888543,0.657000,-0.255000,-1.153000,-115.908000,60.580000,-62.214000,29.57
2.898569,0.629000,-0.056000,-1.170000,-89.267000,54.855000,-49.847000,29.66
2.908545,0.534000,-0.218000,-0.975000,-67.573000,50.794000,-41.420000,29.61
2.918559,0.575000,-0.115000,-1.023000,-49.084000,48.015000,-34.473000,29.61
2.928545,0.508000,-0.236000,-0.844000,-36.504000,49.771000,-30.168000,29.57
2.938592,0.591000,-0.351000,-0.797000,-30.366000,56.000000,-28.611000,29.57
2.948533,0.581000,-0.259000,-0.840000,-28.580000,57.771000,-29.420000,29.52
2.958570,0.577000,-0.154000,-0.831000,-25.084000,36.489000,-30.656000,29.66
2.968600,0.602000,-0.254000,-0.817000,-28.885000,30.366000,-31.969000,29.57
2.978579,0.578000,-0.275000,-0.793000,-29.664000,18.702000,-33.527000,29.66
2.988625,0.568000,-0.243000,-0.829000,-34.458000,19.878000,-35.160000,29.61
2.998622,0.564000,-0.259000,-0.830000,-36.473000,20.840000,-36.733000,29.61
3.008657,0.540000,-0.297000,-0.768000,-37.618000,18.595000,-38.443000,29.57
3.018673,0.545000,-0.255000,-0.821000,-38.061000,17.389000,-39.802000,29.57
3.028683,0.566000,-0.270000,-0.787000,-36.901000,19.908000,-40.763000,29.61
3.038714,0.461000,-0.171000,-0.778000,-20.092000,26.595000,-45.313000,29.52
3.052407,0.567000,-0.068000,-0.874000,-26.229000,38.351000,-47.298000,29.52
3.059615,0.549000,-0.271000,-0.817000,-31.206000,53.786000,-43.542000,29.66
3.068674,0.622000,-0.125000,-0.860000,-30.168000,67.389000,-40.962000,29.57
3.078721,0.571000,-0.030000,-0.891000,-26.061000,79.374000,-34.931000,29.61
3.088693,0.501000,-0.086000,-0.876000,-22.336000,94.015000,-27.481000,29.61
3.098736,0.539000,-0.054000,-0.877000,-19.435000,110.229000,-23.252000,29.66
3.108675,0.535000,-0.100000,-0.861000,-19.466000,138.244000,-18.580000,29.57
3.118707,0.526000,-0.155000,-0.815000,-20.290000,165.985000,-19.206000,29.61
3.128901,0.485000,-0.176000,-0.822000,-22.000000,195.832000,-28.473000,29.52
3.138749,0.471000,-0.174000,-0.794000,-21.298000,221.282000,-39.191000,29.57
3.148818,0.610000,-0.121000,-0.822000,-25.069000,235.939000,-46.458000,29.66
3.158781,0.519000,-0.142000,-0.810000,-25.237000,254.840000,-55.786000,29.61
3.168850,0.515000,-0.236000,-0.809000,-39.344000,280.611000,-74.351000,29.61
3.178875,0.615000,-0.195000,-0.861000,-51.588000,305.649000,-100.168000,29.52
3.188898,0.752000,-0.276000,-0.782000,-77.298000,332.489000,-127.786000,29.57
3.199040,1.093000,-0.261000,-0.987000,-86.916000,374.183000,-151.252000,29.66
3.208966,1.457000,-0.507000,-1.164000,-71.985000,405.282000,-171.450000,29.61
3.218882,1.702000,-0.654000,-1.588000,-33.023000,461.817000,-173.588000,29.57
3.228828,2.416000,-0.339000,-1.948000,24.489000,458.962000,-168.107000,29.66
3.238853,2.521000,-0.763000,-2.092000,47.237000,410.534000,-187.679000,29.66
3.248819,2.323000,-0.472000,-1.948000,-32.000000,376.809000,-236.015000,29.52
3.258866,2.170000,-0.765000,-2.301000,-72.336000,356.214000,-246.855000,29.61
3.268683,1.571000,-1.188000,-3.023000,-87.725000,267.145000,-222.351000,29.57
3.278666,-1.760000,-3.206000,-3.862000,19.511000,113.374000,-40.214000,29.57
3.288662,3.509000,-3.660000,-4.000000,13.802000,-24.626000,100.031000,29.61
3.298694,-0.493000,-3.113000,-1.750000,-117.542000,-152.229000,151.634000,29.61
3.308635,-0.856000,-2.112000,-1.249000,-144.397000,-214.183000,207.450000,29.52
3.318721,-0.158000,-1.229000,-1.722000,-134.137000,-228.412000,238.855000,29.66
3.328710,-0.202000,-0.603000,-1.677000,-88.290000,-219.542000,262.565000,29.57
3.338741,-0.138000,-0.409000,-1.683000,-59.008000,-211.802000,254.702000,29.71
3.348747,-0.107000,-0.257000,-1.495000,-44.962000,-243.008000,217.023000,29.61
3.358738,-0.222000,-0.038000,-1.024000,-40.107000,-268.595000,163.237000,29.66
3.368779,-0.071000,0.189000,-0.833000,-34.550000,-279.603000,103.359000,29.57
3.378719,0.330000,0.268000,-1.051000,-8.427000,-280.870000,58.153000,29.61
3.388764,0.693000,-0.013000,-1.267000,14.870000,-275.298000,33.939000,29.61
3.398913,0.888000,-0.175000,-1.364000,44.076000,-304.473000,19.679000,29.57
3.408876,0.970000,-0.204000,-1.288000,55.023000,-317.267000,7.939000,29.57
3.418811,1.045000,-0.136000,-1.167000,73.985000,-331.954000,-3.267000,29.52
3.428811,1.201000,-0.074000,-1.156000,99.634000,-358.489000,-13.084000,29.52
3.439043,1.213000,-0.062000,-1.389000,120.214000,-367.115000,-16.351000,29.57
3.449109,1.345000,-0.117000,-1.268000,134.473000,-356.305000,-15.298000,29.57
3.459005,1.522000,-0.199000,-1.222000,149.740000,-365.710000,-17.053000,29.57
3.469053,1.506000,-0.266000,-1.109000,155.817000,-351.450000,-16.427000,29.61
3.479142,1.565000,-0.316000,-0.931000,160.229000,-332.641000,-5.634000,29.66
3.488915,1.621000,-0.353000,-0.964000,162.550000,-311.298000,14.626000,29.47
3.499032,1.801000,-0.333000,-0.977000,170.153000,-283.710000,44.000000,29.57
3.508940,1.977000,-0.261000,-1.068000,175.832000,-246.015000,77.481000,29.61
3.519125,2.186000,-0.111000,-1.178000,182.183000,-214.412000,108.153000,29.61
3.528977,2.399000,0.149000,-1.275000,188.305000,-197.832000,133.298000,29.66
3.539030,2.533000,0.428000,-1.152000,188.641000,-192.031000,151.573000,29.66
3.548991,2.611000,0.733000,-1.047000,176.382000,-198.046000,156.229000,29.61
3.559147,2.632000,0.892000,-0.688000,148.611000,-183.405000,152.061000,29.71
3.568978,2.745000,1.082000,-0.500000,116.656000,-184.168000,139.130000,29.57
3.579079,2.838000,1.166000,-0.105000,94.794000,-180.656000,121.023000,29.66
3.588670,2.818000,1.298000,0.396000,82.962000,-155.954000,103.115000,29.52
3.598584,2.835000,1.512000,0.720000,82.489000,-120.122000,84.977000,29.61
3.608643,2.838000,1.566000,0.956000,86.611000,-63.023000,69.695000,29.66
3.618618,2.925000,1.376000,1.029000,77.863000,-25.450000,57.252000,29.57
3.628558,2.866000,1.075000,0.950000,50.092000,15.817000,46.641000,29.57
3.638524,1.645000,-0.666000,1.536000,-72.626000,87.053000,55.924000,29.61
3.648516,2.573000,1.105000,1.463000,-173.069000,75.069000,-21.771000,29.71
3.658521,0.939000,0.295000,-1.725000,-117.282000,144.718000,-17.939000,29.66
3.668569,1.014000,-1.049000,-3.035000,-122.489000,91.954000,-16.229000,29.57
3.678599,-1.246000,0.317000,-3.291000,-75.771000,-10.824000,-27.603000,29.52
3.688587,-0.641000,0.216000,-0.156000,-84.260000,124.046000,-73.206000,29.66
3.698513,1.042000,0.510000,-1.163000,-19.298000,154.504000,-76.046000,29.66
3.708601,1.192000,0.543000,-1.798000,7.847000,153.695000,-72.412000,29.66
3.718500,0.852000,0.397000,-1.682000,33.130000,122.321000,-83.969000,29.52
3.728607,0.700000,-0.031000,-1.354000,50.290000,131.924000,-87.313000,29.61
3.741052,0.988000,-0.462000,-1.396000,48.260000,109.985000,-76.794000,29.57
3.749344,1.083000,-0.713000,-1.457000,29.756000,82.137000,-68.153000,29.57
3.758525,0.839000,-0.646000,-0.938000,14.809000,70.122000,-53.420000,29.52
3.768538,0.838000,-0.712000,-1.020000,-0.977000,61.542000,-47.832000,29.61
3.778485,0.882000,-0.763000,-0.840000,-9.237000,54.687000,-34.687000,29.57
3.788599,0.745000,-0.724000,-0.819000,-16.351000,40.672000,-29.618000,29.57
3.798585,0.664000,-0.671000,-0.824000,-25.527000,25.099000,-26.275000,29.61
3.808555,0.572000,-0.653000,-0.811000,-33.328000,15.359000,-26.458000,29.52
3.820964,0.490000,-0.525000,-0.855000,-38.290000,13.618000,-26.824000,29.61
3.829379,0.344000,-0.369000,-0.821000,-40.901000,15.863000,-29.573000,29.66
3.840725,0.300000,-0.371000,-0.779000,-42.260000,22.260000,-31.679000,29.57
3.858488,0.352000,-0.363000,-0.752000,-44.809000,29.710000,-33.206000,29.61
3.859064,0.345000,-0.300000,-0.727000,-49.985000,41.130000,-34.137000,29.52
3.868513,0.344000,-0.379000,-0.722000,-56.626000,49.771000,-36.305000,29.57
3.878595,0.383000,-0.542000,-0.771000,-61.908000,52.748000,-38.412000,29.57
3.895993,0.436000,-0.508000,-0.785000,-69.130000,56.489000,-40.977000,29.61
3.898533,0.542000,-0.428000,-0.870000,-70.565000,51.115000,-41.160000,29.57
3.908637,0.540000,-0.376000,-0.813000,-70.641000,42.427000,-41.802000,29.57
3.918500,0.467000,-0.484000,-0.809000,-74.443000,35.237000,-45.282000,29.57
3.928623,0.496000,-0.466000,-0.772000,-83.374000,30.733000,-50.611000,29.52
3.938601,0.645000,-0.255000,-0.979000,-83.160000,24.977000,-52.595000,29.61
3.956680,0.478000,-0.404000,-0.769000,-83.786000,16.870000,-57.542000,29.66
3.958572,0.520000,-0.300000,-0.840000,-84.000000,16.687000,-62.519000,29.66
3.969680,0.551000,-0.077000,-0.963000,-68.870000,9.237000,-60.992000,29.61
3.986447,0.582000,-0.178000,-0.880000,-58.992000,9.374000,-54.534000,29.52
3.988483,0.541000,-0.184000,-0.898000,-52.000000,14.626000,-50.916000,29.57
4.003633,0.520000,-0.170000,-0.851000,-45.053000,19.435000,-48.137000,29.57
4.008523,0.531000,-0.074000,-0.876000,-39.603000,26.427000,-43.878000,29.61
4.020170,0.560000,-0.168000,-0.830000,-35.023000,34.122000,-40.412000,29.61
4.031558,0.552000,-0.146000,-0.841000,-31.069000,41.496000,-40.137000,29.66
4.038591,0.480000,-0.574000,-0.734000,-23.450000,40.443000,-42.992000,29.57
4.048612,0.534000,0.009000,-0.939000,-27.557000,55.328000,-43.679000,29.52
4.058552,0.650000,-0.178000,-0.832000,-28.412000,64.351000,-36.443000,29.61
4.068514,0.494000,-0.084000,-0.869000,-25.557000,74.244000,-33.023000,29.57
4.078527,0.527000,-0.105000,-0.899000,-26.015000,91.176000,-29.359000,29.57
4.088567,0.615000,-0.174000,-0.845000,-33.863000,114.366000,-24.809000,29.57
4.098527,0.543000,-0.232000,-0.869000,-38.290000,134.718000,-27.511000,29.61
4.108607,0.538000,-0.168000,-0.825000,-44.534000,160.305000,-29.023000,29.57
4.119569,0.493000,-0.093000,-0.826000,-44.046000,179.374000,-35.588000,29.66
4.128553,0.450000,-0.058000,-0.827000,-43.450000,198.473000,-40.061000,29.66
4.138558,0.499000,-0.024000,-0.830000,-40.733000,241.053000,-43.466000,29.61
4.148499,0.508000,-0.027000,-0.828000,-36.672000,240.779000,-52.718000,29.61
4.158472,0.570000,-0.062000,-0.798000,-36.885000,262.885000,-63.969000,29.57
4.168549,0.554000,-0.115000,-0.759000,-42.718000,299.634000,-80.580000,29.57
4.178697,0.660000,-0.175000,-0.773000,-60.031000,388.000000,-101.053000,29.61
4.188537,0.887000,-0.199000,-0.891000,-85.908000,385.542000,-125.985000,29.61
4.198616,1.388000,-0.383000,-0.920000,-83.740000,380.366000,-152.824000,29.52
4.208509,1.553000,-0.614000,-1.260000,-68.672000,407.634000,-164.916000,29.57
4.218540,2.102000,-0.611000,-1.783000,-24.809000,433.160000,-161.695000,29.57
4.228538,2.807000,-0.480000,-2.179000,59.893000,399.969000,-156.580000,29.61
4.238675,2.461000,-0.531000,-1.848000,27.695000,392.534000,-200.427000,29.61
4.248531,2.312000,-0.825000,-2.248000,-56.779000,359.206000,-245.511000,29.57
4.260349,1.682000,-1.062000,-2.373000,-93.527000,308.229000,-251.725000,29.57
4.271013,0.618000,-1.404000,-2.943000,-89.542000,163.695000,-179.939000,29.52
4.278962,2.092000,-2.565000,-4.000000,54.214000,119.115000,-19.634000,29.61
4.288544,1.458000,-2.739000,-3.650000,-40.748000,-113.130000,30.000000,29.57
4.298537,-0.776000,-2.347000,-1.555000,-82.733000,-191.634000,82.550000,29.66
4.312783,-0.321000,-1.523000,-1.409000,-109.893000,-196.550000,106.794000,29.61
4.320693,-0.320000,-1.110000,-1.486000,-88.977000,-205.237000,141.557000,29.66
4.343944,-0.271000,-0.820000,-1.472000,-71.511000,-165.939000,151.649000,29.66
4.344998,-0.094000,-0.634000,-1.522000,-52.198000,-201.420000,145.954000,29.66
4.354884,-0.086000,-0.446000,-1.386000,-45.420000,-240.687000,119.832000,29.61
4.358590,-0.160000,-0.182000,-1.112000,-41.527000,-270.931000,82.000000,29.61
4.368556,-0.027000,0.130000,-1.058000,-30.015000,-289.130000,32.687000,29.66
4.378923,0.381000,0.341000,-1.232000,-8.168000,-297.695000,-20.397000,29.57
4.388582,0.646000,0.377000,-1.377000,23.618000,-318.855000,-71.649000,29.66
4.398515,0.835000,0.349000,-1.326000,63.511000,-314.458000,-107.145000,29.61
4.408629,1.065000,0.202000,-1.423000,118.656000,-348.000000,-130.733000,29.52
4.422099,1.174000,0.057000,-1.125000,183.237000,-365.969000,-143.588000,29.66
4.428630,1.264000,-0.109000,-0.929000,211.221000,-381.771000,-133.511000,29.57
4.438616,1.255000,-0.353000,-0.729000,241.176000,-387.389000,-113.496000,29.61
4.448528,1.250000,-0.534000,-0.638000,254.962000,-374.504000,-87.008000,29.61
4.458651,1.892000,-1.851000,-0.365000,217.176000,-363.176000,-6.366000,29.57
4.468496,0.777000,-0.228000,0.057000,209.649000,-272.580000,-19.679000,29.57
4.478637,1.760000,-0.662000,-0.900000,257.008000,-225.237000,100.305000,29.61
4.488534,1.673000,-1.450000,-0.584000,254.595000,-184.275000,151.115000,29.52
4.498560,2.240000,-1.325000,-0.998000,219.954000,-156.031000,239.969000,29.57
4.508545,2.137000,-0.610000,-1.176000,206.504000,-127.664000,320.763000,29.66
4.518520,2.252000,0.220000,-1.517000,220.626000,-98.901000,382.626000,29.66
4.528505,2.311000,0.885000,-1.671000,231.771000,-93.115000,403.695000,29.52
4.538547,2.412000,1.476000,-1.830000,235.481000,-99.527000,387.695000,29.52
4.548512,2.518000,1.535000,-1.790000,229.481000,-116.031000,339.893000,29.66
4.560354,2.394000,1.505000,-1.239000,103.542000,-117.496000,271.847000,29.57
4.568565,2.295000,2.441000,-1.946000,144.870000,-167.817000,192.031000,29.61
4.579530,2.753000,1.740000,-0.732000,148.733000,-247.008000,109.328000,29.66
4.588782,2.921000,1.576000,0.006000,153.466000,-223.160000,43.954000,29.57
4.598552,3.113000,1.436000,0.450000,142.565000,-181.145000,7.160000,29.57
4.613191,3.071000,1.384000,0.813000,143.786000,-118.947000,0.580000,29.52
4.618581,2.928000,1.280000,1.381000,135.588000,-40.611000,13.130000,29.52
4.628522,2.844000,1.077000,1.276000,103.588000,8.519000,26.931000,29.57
4.660575,2.742000,0.825000,1.047000,33.924000,59.237000,34.412000,29.57
4.664517,2.666000,0.625000,0.507000,-31.267000,100.412000,35.618000,29.52
4.665489,0.082000,-1.401000,0.012000,-134.489000,149.038000,81.618000,29.61
4.670198,1.438000,-0.846000,-2.481000,-171.924000,74.824000,70.000000,29.57
4.679356,-0.692000,-1.257000,-2.605000,-150.183000,62.626000,72.595000,29.57
4.689645,-1.525000,-0.476000,-0.985000,-163.618000,94.656000,28.061000,29.57
4.698965,-0.234000,1.756000,-0.575000,-131.695000,82.046000,-41.374000,29.61
4.709233,0.633000,1.522000,-0.635000,-120.427000,63.069000,-73.038000,29.61
4.718686,1.164000,1.384000,-2.121000,-43.618000,141.344000,-112.183000,29.66
4.728758,1.051000,0.446000,-2.469000,-6.565000,96.550000,-121.603000,29.66
4.738586,0.813000,-0.097000,-1.635000,-7.603000,112.336000,-125.557000,29.61
4.748620,1.018000,-0.387000,-1.561000,5.817000,123.115000,-100.962000,29.61
4.758537,0.847000,-0.058000,-1.460000,24.260000,114.870000,-73.053000,29.57
4.768534,0.809000,-0.166000,-1.376000,21.527000,94.382000,-68.885000,29.57
4.778588,0.844000,-0.606000,-0.917000,19.771000,67.359000,-58.534000,29.61
4.788662,1.033000,-1.435000,-0.610000,-0.519000,69.893000,-43.084000,29.57
4.798743,0.896000,-1.217000,-0.540000,-16.718000,62.672000,-31.557000,29.66
4.808590,0.676000,-0.761000,-0.838000,-37.069000,49.618000,-33.115000,29.57
4.818551,0.509000,-0.591000,-0.775000,-54.489000,26.290000,-39.985000,29.52
4.828652,0.383000,-0.654000,-0.629000,-70.641000,19.450000,-45.618000,29.61
4.838555,0.263000,-0.472000,-0.614000,-86.076000,19.099000,-51.313000,29.57
4.848540,0.381000,-0.410000,-0.954000,-95.130000,29.664000,-54.931000,29.57
4.858573,0.499000,-0.232000,-0.952000,-88.779000,32.901000,-47.573000,29.61
4.868501,0.396000,-0.264000,-0.883000,-81.435000,40.885000,-42.290000,29.52
4.878551,0.386000,-0.360000,-0.884000,-75.389000,46.687000,-38.870000,29.57
4.888567,0.442000,-0.332000,-0.840000,-69.221000,53.282000,-36.992000,29.47
4.898553,0.513000,-0.328000,-0.920000,-63.221000,57.573000,-33.878000,29.66
4.908501,0.486000,-0.337000,-0.854000,-61.084000,57.099000,-34.122000,29.61
4.918535,0.504000,-0.419000,-0.795000,-61.267000,53.084000,-35.863000,29.61
4.928524,0.486000,-0.409000,-0.865000,-67.954000,46.168000,-39.878000,29.66
4.938543,0.534000,-0.280000,-0.807000,-70.916000,35.908000,-44.687000,29.47
4.951437,0.433000,-0.488000,-0.755000,-81.588000,29.893000,-50.748000,29.61
4.958703,0.484000,-0.406000,-0.848000,-86.031000,16.885000,-60.092000,29.61
4.976320,0.569000,-0.081000,-0.819000,-81.023000,14.443000,-61.893000,29.57
4.978580,0.625000,-0.098000,-0.866000,-67.664000,6.015000,-55.374000,29.57
4.988664,0.727000,-0.092000,-0.898000,-37.206000,-21.130000,-55.679000,29.61
4.998672,0.479000,-0.142000,-0.794000,-38.855000,27.985000,-48.397000,29.57
5.008540,0.459000,-0.208000,-0.837000,-34.733000,19.389000,-41.893000,29.57
5.025405,0.558000,-0.115000,-0.898000,-32.061000,28.885000,-39.084000,29.66
5.028523,0.538000,-0.057000,-0.877000,-23.496000,39.649000,-37.756000,29.61
5.038780,0.512000,-0.125000,-0.836000,-17.374000,46.519000,-38.916000,29.61
5.048605,0.505000,-0.152000,-0.850000,-22.458000,57.725000,-36.733000,29.57
5.058544,0.636000,-0.078000,-0.881000,-20.718000,63.924000,-32.031000,29.57
5.070334,0.541000,-0.103000,-0.841000,-18.992000,74.489000,-28.885000,29.66
5.080680,0.526000,-0.166000,-0.885000,-20.000000,92.290000,-24.397000,29.61
5.088526,0.593000,-0.196000,-0.872000,-27.130000,105.511000,-22.580000,29.61
5.098581,0.553000,-0.199000,-0.867000,-28.122000,125.130000,-23.908000,29.57
5.108694,0.559000,-0.175000,-0.841000,-32.092000,151.160000,-25.542000,29.57
5.120091,0.531000,-0.121000,-0.834000,-36.534000,176.183000,-29.008000,29.71
5.128676,0.418000,-0.072000,-0.826000,-32.137000,207.282000,-36.244000,29.61
5.141095,0.493000,-0.050000,-0.859000,-31.863000,210.824000,-44.321000,29.57
5.153583,0.502000,-0.095000,-0.831000,-32.427000,240.214000,-50.412000,29.57
5.158616,0.478000,0.003000,-0.781000,-29.038000,281.481000,-60.458000,29.61
5.168540,0.560000,-0.077000,-0.888000,-36.473000,297.237000,-78.626000,29.61
5.178525,0.590000,-0.130000,-0.765000,-52.321000,349.557000,-97.863000,29.66
5.188582,0.897000,-0.189000,-0.889000,-73.435000,383.893000,-119.053000,29.66
5.198559,1.134000,-0.275000,-1.028000,-80.626000,415.344000,-140.153000,29.61
5.211631,1.337000,-0.533000,-1.392000,-90.565000,431.084000,-146.244000,29.57
5.222840,2.140000,-0.436000,-1.629000,-46.473000,479.557000,-136.931000,29.66
5.229236,2.783000,-0.525000,-2.365000,35.328000,454.534000,-113.969000,29.57
5.240895,2.638000,-0.727000,-2.110000,37.405000,418.489000,-145.832000,29.52
5.249324,2.670000,-0.609000,-2.353000,-15.511000,404.229000,-176.702000,29.52
5.259154,1.619000,-0.810000,-2.397000,-60.061000,346.702000,-200.473000,29.57
5.268993,0.830000,-1.161000,-2.086000,-80.580000,211.634000,-166.275000,29.57
5.278713,0.186000,-1.742000,-4.000000,105.084000,154.382000,-32.229000,29.57
5.289556,2.777000,-2.578000,-4.000000,-23.802000,-89.008000,-10.473000,29.61
5.299170,-1.039000,-2.715000,-1.741000,-76.519000,-270.000000,-1.420000,29.52
5.309427,-0.750000,-1.610000,-1.323000,-122.916000,-252.305000,7.832000,29.57
5.319354,-0.203000,-1.019000,-1.434000,-90.672000,-278.076000,32.977000,29.66
5.328743,-0.413000,-1.074000,-1.300000,-41.542000,-234.275000,73.771000,29.71
5.338670,-0.028000,-0.986000,-1.435000,-10.412000,-213.237000,96.000000,29.52
5.348899,0.124000,-0.907000,-1.295000,1.282000,-241.740000,103.389000,29.57
5.359160,0.186000,-0.722000,-1.122000,7.405000,-269.542000,98.916000,29.66
5.373006,0.416000,-0.433000,-1.074000,14.580000,-289.481000,89.664000,29.61
5.383206,0.586000,-0.192000,-1.016000,27.939000,-298.779000,76.031000,29.61
5.389259,0.650000,-0.013000,-1.019000,52.763000,-296.977000,59.878000,29.66
5.399061,0.773000,0.041000,-1.058000,82.656000,-301.756000,43.924000,29.57
5.408941,0.889000,-0.002000,-1.002000,107.160000,-315.588000,29.389000,29.61
5.418975,0.956000,-0.081000,-0.966000,126.870000,-322.931000,20.702000,29.61
5.428844,0.990000,-0.132000,-1.037000,145.313000,-318.153000,19.298000,29.52
5.439001,1.172000,-0.102000,-1.039000,163.603000,-311.557000,23.298000,29.66
5.448986,1.294000,-0.075000,-1.106000,185.160000,-315.878000,32.534000,29.66
5.459009,1.398000,-0.107000,-1.104000,206.275000,-314.733000,46.641000,29.71
5.469049,1.521000,-0.242000,-1.059000,211.695000,-306.656000,68.855000,29.57
5.479106,1.605000,-0.301000,-1.008000,199.679000,-282.565000,98.061000,29.57
5.488916,1.706000,-0.206000,-1.075000,180.321000,-253.893000,126.779000,29.66
5.499239,1.830000,-0.048000,-1.147000,162.779000,-229.924000,152.641000,29.61
5.508914,2.000000,0.153000,-1.256000,148.763000,-213.023000,172.183000,29.61
5.518792,2.256000,0.362000,-1.339000,135.069000,-207.023000,185.267000,29.57
5.529005,2.463000,0.588000,-1.280000,123.008000,-204.809000,191.588000,29.57
5.538503,2.560000,0.781000,-1.118000,105.893000,-205.863000,189.267000,29.52
5.548600,2.578000,0.835000,-0.851000,81.298000,-204.702000,178.046000,29.61
5.558786,2.685000,0.864000,-0.587000,51.924000,-206.198000,159.725000,29.57
5.568758,2.778000,0.923000,-0.311000,32.031000,-200.321000,138.321000,29.57
5.587677,2.738000,1.102000,0.121000,31.389000,-184.198000,116.718000,29.66
5.588657,2.496000,1.241000,0.485000,44.641000,-148.504000,96.046000,29.71
5.598918,2.414000,1.389000,0.619000,64.626000,-106.229000,76.275000,29.52
5.608517,2.454000,1.411000,0.624000,76.885000,-67.176000,56.565000,29.57
5.618497,2.530000,1.169000,0.553000,57.710000,-38.198000,36.366000,29.57
5.628523,2.485000,0.898000,0.506000,12.901000,-17.374000,17.496000,29.61
5.638469,2.220000,0.706000,0.369000,-35.405000,5.786000,3.939000,29.61
5.648534,2.027000,0.597000,0.198000,-61.267000,22.046000,-0.229000,29.57
5.658512,2.727000,1.069000,0.270000,-79.267000,140.046000,-13.618000,29.57
5.668655,0.274000,0.236000,0.708000,-19.008000,25.863000,-20.275000,29.61
5.678675,1.135000,-0.491000,-1.779000,-54.718000,163.359000,-14.641000,29.57
5.688740,0.230000,-0.430000,-1.847000,-50.855000,60.427000,-29.496000,29.57
5.698650,-0.516000,-0.453000,-0.727000,-45.237000,47.191000,-62.229000,29.57
5.708632,-0.451000,0.021000,-0.323000,-15.802000,91.649000,-70.000000,29.61
5.718560,0.404000,0.031000,-0.671000,8.626000,170.504000,-47.710000,29.61
5.728552,1.054000,0.343000,-1.552000,25.969000,168.153000,-57.542000,29.57
5.738540,0.919000,0.699000,-1.962000,43.939000,187.405000,-68.458000,29.66
5.748555,0.943000,0.301000,-1.624000,65.969000,119.282000,-82.962000,29.52
5.758517,1.387000,-0.813000,-1.608000,44.092000,101.847000,-75.878000,29.52
5.768552,1.195000,-1.028000,-0.960000,25.893000,81.359000,-45.969000,29.57
5.778538,0.805000,-0.829000,-0.934000,1.405000,85.176000,-33.771000,29.57
5.788587,0.713000,-0.443000,-0.989000,-14.015000,88.336000,-34.046000,29.57
5.798561,0.927000,-0.734000,-0.872000,-22.794000,43.908000,-26.977000,29.61
5.808567,0.788000,-0.751000,-0.792000,-39.771000,33.221000,-21.298000,29.61
5.818581,0.519000,-0.548000,-0.836000,-47.863000,15.282000,-23.908000,29.57
5.828605,0.431000,-0.578000,-0.778000,-52.977000,4.550000,-29.450000,29.66
5.838629,0.429000,-0.590000,-0.715000,-60.214000,10.656000,-35.023000,29.61
5.848593,0.377000,-0.434000,-0.765000,-70.443000,14.977000,-40.641000,29.52
5.858613,0.348000,-0.361000,-0.805000,-77.527000,22.046000,-44.931000,29.47
5.868674,0.498000,-0.297000,-0.914000,-76.443000,23.893000,-44.595000,29.57
5.878763,0.481000,-0.182000,-0.879000,-73.771000,24.351000,-41.069000,29.61
5.888671,0.461000,-0.230000,-0.826000,-70.626000,25.542000,-38.992000,29.57
5.898796,0.479000,-0.285000,-0.900000,-69.420000,28.962000,-38.565000,29.57
5.908782,0.501000,-0.115000,-0.898000,-60.183000,23.573000,-36.260000,29.57
5.918756,0.563000,-0.341000,-0.856000,-55.160000,20.840000,-36.107000,29.61
5.928844,0.560000,-0.271000,-0.870000,-53.282000,18.580000,-37.008000,29.61
5.938862,0.509000,-0.145000,-0.818000,-44.275000,11.786000,-34.870000,29.66
5.948865,0.502000,-0.203000,-0.823000,-36.748000,8.672000,-32.534000,29.66
5.958851,0.500000,-0.231000,-0.842000,-34.947000,10.321000,-32.687000,29.52
5.968873,0.513000,-0.195000,-0.862000,-31.985000,12.458000,-31.328000,29.61
5.978811,0.517000,-0.107000,-0.873000,-27.160000,16.321000,-26.809000,29.57
5.988874,0.500000,-0.146000,-0.848000,-22.702000,18.656000,-24.107000,29.57
5.998846,0.474000,-0.173000,-0.843000,-19.374000,22.000000,-23.985000,29.57
6.008913,0.506000,-0.176000,-0.845000,-17.542000,26.336000,-23.786000,29.61
6.018903,0.531000,-0.143000,-0.882000,-15.206000,31.985000,-21.710000,29.71
6.028819,0.539000,-0.186000,-0.831000,-14.366000,35.710000,-20.947000,29.57
6.038839,0.534000,-0.148000,-0.839000,-12.977000,39.344000,-22.580000,29.66
6.048983,0.558000,0.216000,-0.938000,3.954000,40.290000,-35.725000,29.52
6.059013,0.440000,-0.139000,-0.811000,-18.824000,58.519000,-27.008000,29.61
6.069006,0.539000,-0.255000,-0.820000,-17.740000,61.511000,-25.893000,29.57
6.078994,0.532000,-0.147000,-0.874000,-21.786000,77.664000,-23.603000,29.66
6.088996,0.538000,-0.107000,-0.907000,-22.321000,93.450000,-20.595000,29.52
6.099039,0.532000,-0.147000,-0.879000,-24.687000,109.282000,-17.557000,29.57
6.108997,0.526000,-0.147000,-0.883000,-29.160000,131.298000,-14.947000,29.66
6.119036,0.455000,0.054000,-0.921000,-29.939000,166.244000,-13.954000,29.66
6.129178,0.458000,-0.166000,-0.856000,-33.191000,180.656000,-20.137000,29.61
6.139006,0.427000,-0.137000,-0.812000,-33.053000,200.794000,-31.771000,29.61
6.148932,0.497000,-0.139000,-0.799000,-38.519000,220.824000,-38.229000,29.57
6.159106,0.549000,-0.136000,-0.817000,-38.855000,232.718000,-47.237000,29.66
6.168773,0.644000,-0.094000,-0.815000,-32.504000,254.015000,-59.344000,29.52
6.178760,0.526000,-0.156000,-0.789000,-32.550000,295.145000,-78.580000,29.52
6.188778,0.675000,-0.156000,-0.721000,-60.855000,324.458000,-99.771000,29.57
6.198774,0.926000,-0.340000,-0.840000,-76.641000,338.382000,-125.053000,29.57
6.208704,1.056000,-0.375000,-0.949000,-87.130000,352.748000,-154.840000,29.66
6.218706,1.371000,-0.449000,-1.174000,-103.206000,382.977000,-183.328000,29.61
6.228750,1.639000,-0.425000,-1.312000,-109.084000,423.206000,-191.924000,29.52
6.238775,2.379000,-0.383000,-1.665000,-72.458000,441.863000,-188.321000,29.57
6.248820,2.536000,-0.672000,-2.161000,22.168000,381.511000,-184.519000,29.57
6.258808,2.403000,-0.817000,-1.868000,-24.962000,346.672000,-208.107000,29.61
6.268819,1.631000,-0.916000,-1.789000,-69.588000,313.115000,-223.008000,29.52
6.278936,1.315000,-1.123000,-2.473000,-115.634000,255.924000,-232.427000,29.57
6.288909,-0.047000,-1.640000,-1.964000,-120.580000,112.885000,-167.298000,29.66
6.298866,1.470000,-2.527000,-4.000000,54.870000,122.000000,32.641000,29.61
6.308862,2.269000,-2.763000,-3.571000,-28.366000,-117.771000,84.305000,29.52
6.318672,-0.896000,-2.263000,-1.081000,-117.740000,-117.817000,112.366000,29.52
6.328603,-0.366000,-1.525000,-1.301000,-122.122000,-212.885000,143.924000,29.57
6.338629,-0.088000,-1.093000,-1.309000,-114.733000,-227.649000,173.359000,29.57
6.348529,-0.079000,-0.819000,-1.288000,-87.496000,-210.687000,200.427000,29.61
6.358784,-0.026000,-0.543000,-1.346000,-68.931000,-205.450000,198.473000,29.57
6.368540,0.019000,-0.415000,-1.239000,-70.290000,-233.542000,169.908000,29.47
6.378787,0.054000,-0.185000,-1.111000,-72.443000,-262.809000,125.908000,29.57
6.388562,0.161000,0.130000,-1.112000,-50.534000,-286.382000,85.084000,29.52
6.398539,0.342000,0.206000,-1.096000,-10.046000,-298.626000,52.427000,29.61
6.408489,0.542000,0.091000,-1.076000,29.069000,-307.893000,27.817000,29.57
6.418546,0.670000,-0.068000,-1.007000,50.397000,-320.916000,7.053000,29.57
6.428537,0.754000,-0.079000,-0.964000,67.954000,-328.229000,-10.015000,29.52
6.438530,0.828000,-0.019000,-0.918000,88.702000,-326.366000,-22.672000,29.52
6.448527,0.931000,-0.044000,-0.950000,117.328000,-323.176000,-28.870000,29.57
6.458557,1.056000,-0.112000,-0.983000,142.244000,-319.618000,-28.305000,29.57
6.468508,1.156000,-0.168000,-1.050000,164.366000,-323.221000,-21.634000,29.61
6.478533,1.189000,-0.155000,-1.056000,189.008000,-320.061000,-13.786000,29.61
6.489850,1.229000,-0.136000,-1.037000,204.229000,-303.511000,-7.435000,29.57
6.501559,1.280000,-0.233000,-0.987000,209.511000,-287.786000,-4.489000,29.47
6.508623,1.385000,-0.326000,-0.932000,211.053000,-257.023000,6.595000,29.52
6.518547,1.557000,-0.500000,-1.029000,212.321000,-226.504000,29.389000,29.52
6.528505,1.913000,-0.466000,-1.183000,216.397000,-201.985000,69.603000,29.52
6.542383,2.105000,-0.369000,-1.131000,214.473000,-182.076000,116.931000,29.57
6.549009,2.114000,-0.172000,-1.056000,198.244000,-162.702000,153.939000,29.57
6.559323,2.176000,0.232000,-1.046000,180.061000,-145.267000,182.076000,29.61
6.569232,2.239000,0.700000,-1.155000,171.679000,-140.916000,193.679000,29.57
6.579320,2.366000,0.960000,-1.178000,159.191000,-141.359000,192.397000,29.66
6.588708,2.658000,1.419000,-0.889000,89.084000,-141.817000,158.809000,29.57
6.598704,2.024000,1.911000,-1.428000,54.305000,-81.374000,161.084000,29.61
6.617562,2.967000,1.592000,-0.253000,71.008000,-164.153000,128.809000,29.52
6.619266,2.672000,1.432000,0.473000,66.122000,-138.183000,98.534000,29.57
6.629415,2.665000,1.391000,0.963000,10.137000,-116.031000,56.763000,29.66
6.639355,2.563000,1.449000,1.191000,-38.336000,-59.542000,34.763000,29.61
6.649386,2.890000,1.526000,1.362000,-63.237000,3.832000,36.061000,29.71
6.659340,3.201000,1.568000,1.521000,-136.824000,80.458000,57.847000,29.47
6.669406,3.364000,2.006000,2.104000,-149.985000,145.771000,40.611000,29.66
6.679373,1.128000,1.096000,-1.438000,-84.626000,202.748000,0.565000,29.61
6.689450,1.089000,0.451000,-4.000000,-80.550000,147.786000,-56.687000,29.61
6.699479,-0.179000,0.266000,-2.370000,-14.870000,105.649000,-87.221000,29.57
6.709240,-0.493000,0.079000,0.297000,5.252000,120.611000,-139.939000,29.57
6.719320,1.400000,-0.791000,-0.767000,-8.061000,164.183000,-124.992000,29.75
6.729206,2.122000,-0.533000,-2.020000,15.985000,99.252000,-64.229000,29.52
6.739229,0.563000,0.333000,-1.026000,-4.351000,85.328000,-76.550000,29.71
6.749195,1.035000,-0.250000,-1.469000,-35.053000,69.145000,-87.847000,29.57
6.759343,1.059000,-0.556000,-0.934000,-40.992000,46.931000,-59.359000,29.57
6.769220,0.984000,-0.498000,-1.066000,-45.023000,65.298000,-39.374000,29.61
6.779356,0.755000,-0.141000,-1.252000,-33.634000,39.282000,-29.191000,29.57
6.789099,0.738000,-0.339000,-1.072000,-21.939000,21.817000,-20.168000,29.57
6.799299,0.675000,-0.508000,-0.957000,-12.901000,27.038000,-11.115000,29.57
6.809150,0.538000,-0.311000,-0.959000,-8.275000,28.733000,-6.458000,29.52
6.819286,0.466000,-0.315000,-0.877000,-3.466000,30.137000,-3.466000,29.52
6.829168,0.488000,-0.382000,-0.873000,-2.015000,31.527000,-2.122000,29.57
6.838977,0.474000,-0.320000,-0.900000,-2.641000,30.275000,-2.107000,29.66
6.849091,0.466000,-0.351000,-0.867000,-3.954000,31.099000,-2.626000,29.57
6.859046,0.521000,-0.352000,-0.877000,-6.489000,32.092000,-3.924000,29.61
6.869122,0.546000,-0.268000,-0.875000,-5.817000,32.122000,-3.176000,29.61
6.879135,0.494000,-0.276000,-0.847000,-4.137000,32.458000,-3.023000,29.57
6.889127,0.460000,-0.339000,-0.787000,-6.565000,33.450000,-4.260000,29.57
6.899119,0.437000,-0.324000,-0.776000,-10.260000,34.122000,-7.053000,29.52
6.908911,0.455000,-0.297000,-0.792000,-10.840000,31.511000,-9.496000,29.61
6.919097,0.458000,-0.288000,-0.799000,-14.611000,35.282000,-12.214000,29.66
6.928993,0.436000,-0.327000,-0.750000,-17.847000,30.885000,-15.649000,29.66
6.939011,0.429000,-0.382000,-0.729000,-26.397000,27.893000,-21.817000,29.52
6.948973,0.450000,-0.427000,-0.765000,-36.290000,26.748000,-28.748000,29.61
6.959014,0.474000,-0.362000,-0.749000,-46.275000,24.885000,-36.611000,29.57
6.969312,0.507000,-0.408000,-0.771000,-53.206000,23.725000,-44.580000,29.57
6.979767,0.480000,-0.349000,-0.813000,-51.802000,17.710000,-50.031000,29.66
6.989044,0.552000,-0.253000,-0.783000,-48.748000,14.702000,-48.962000,29.61
6.999851,0.568000,-0.098000,-0.877000,-44.366000,17.985000,-44.092000,29.61
7.009567,0.567000,-0.196000,-0.847000,-41.985000,18.595000,-41.511000,29.57
7.019075,0.549000,-0.206000,-0.852000,-41.847000,24.779000,-41.069000,29.66
7.028520,0.580000,-0.147000,-0.845000,-37.740000,27.191000,-40.458000,29.71
7.038540,0.449000,-0.296000,-0.794000,-26.794000,33.924000,-40.336000,29.57
7.048551,0.613000,-0.092000,-0.904000,-23.893000,38.977000,-39.542000,29.66
7.058526,0.562000,-0.144000,-0.878000,-23.847000,43.252000,-36.977000,29.66
7.068617,0.560000,-0.211000,-0.839000,-26.168000,56.397000,-35.710000,29.61
7.078695,0.652000,-0.092000,-0.892000,-30.015000,71.084000,-28.183000,29.52
7.088607,0.546000,-0.127000,-0.875000,-26.809000,85.359000,-24.443000,29.66
7.098666,0.529000,-0.203000,-0.894000,-25.985000,106.702000,-23.023000,29.57
7.108664,0.569000,-0.225000,-0.856000,-29.328000,131.053000,-22.763000,29.61
7.118667,0.548000,-0.162000,-0.825000,-33.679000,160.061000,-23.115000,29.52
7.128675,0.518000,-0.087000,-0.830000,-31.496000,187.328000,-29.511000,29.66
7.138738,0.396000,-0.029000,-0.761000,-26.626000,220.183000,-38.229000,29.57
7.148739,0.604000,-0.097000,-0.836000,-31.450000,236.641000,-41.267000,29.61
7.158794,0.508000,-0.076000,-0.839000,-25.802000,262.489000,-48.260000,29.52
7.168770,0.612000,-0.112000,-0.822000,-28.550000,285.008000,-59.084000,29.61
7.178790,0.493000,-0.150000,-0.815000,-38.718000,303.771000,-76.321000,29.66
7.188793,0.690000,-0.217000,-0.811000,-59.237000,329.145000,-96.443000,29.57
7.198823,0.997000,-0.422000,-1.002000,-59.557000,354.061000,-115.023000,29.61
7.208930,1.024000,-0.605000,-1.001000,-31.725000,373.786000,-119.802000,29.61
7.218825,1.491000,-0.604000,-1.250000,5.847000,377.588000,-114.672000,29.57
7.228945,1.744000,-0.246000,-1.417000,-14.336000,392.061000,-114.947000,29.57
7.238612,2.136000,-0.204000,-1.973000,-54.718000,434.214000,-137.802000,29.52
7.248729,2.227000,-0.233000,-1.673000,-72.229000,433.924000,-174.290000,29.66
7.258715,2.383000,-0.615000,-2.235000,-78.092000,408.656000,-184.305000,29.57
7.268700,1.752000,-0.710000,-2.224000,-77.206000,341.267000,-167.481000,29.57
7.278739,0.519000,-1.060000,-2.865000,-41.313000,225.221000,-114.534000,29.52
7.288800,0.516000,-3.637000,-4.000000,21.099000,70.321000,14.458000,29.52
7.298772,1.854000,-2.900000,-4.000000,-48.473000,-93.679000,45.420000,29.57
7.308783,-0.777000,-2.203000,-1.787000,-106.565000,-126.489000,53.176000,29.66
7.318818,-0.559000,-1.337000,-1.344000,-140.702000,-175.802000,75.786000,29.61
7.328832,-0.285000,-0.942000,-1.571000,-115.878000,-199.099000,86.748000,29.52
7.338707,-0.077000,-0.799000,-1.652000,-69.756000,-202.855000,103.252000,29.61
7.349005,0.116000,-0.764000,-1.645000,-31.679000,-220.366000,110.779000,29.57
7.358903,0.208000,-0.649000,-1.562000,-18.229000,-243.069000,105.405000,29.66
7.368947,0.316000,-0.431000,-1.432000,-20.687000,-265.206000,86.412000,29.52
7.378928,0.476000,-0.207000,-1.312000,-26.092000,-284.000000,61.206000,29.71
7.388891,0.610000,0.010000,-1.286000,-12.916000,-298.794000,34.473000,29.57
7.399042,0.794000,0.092000,-1.326000,18.534000,-314.718000,13.420000,29.57
7.409007,0.917000,0.069000,-1.268000,51.206000,-331.527000,-2.534000,29.61
7.419076,0.911000,-0.080000,-1.125000,72.977000,-346.305000,-13.252000,29.61
7.428940,0.926000,-0.232000,-0.946000,80.260000,-347.511000,-18.321000,29.57
7.438988,1.159000,-0.159000,-0.795000,72.290000,-336.031000,-14.336000,29.47
7.448920,1.423000,-0.414000,-0.896000,79.588000,-324.687000,4.382000,29.52
7.459127,1.231000,-0.306000,-0.808000,89.160000,-327.588000,24.901000,29.61
7.469224,1.089000,-0.226000,-0.806000,106.244000,-319.817000,37.817000,29.57
7.479274,0.988000,-0.217000,-0.892000,112.855000,-303.252000,45.328000,29.57
7.488910,1.427000,-0.257000,-1.080000,123.832000,-280.748000,58.061000,29.66
7.499135,1.414000,-0.309000,-1.095000,123.679000,-268.550000,70.382000,29.61
7.509109,1.411000,-0.369000,-1.049000,123.038000,-252.626000,84.198000,29.47
7.518997,1.524000,-0.241000,-1.026000,124.824000,-237.450000,98.412000,29.66
7.528867,1.609000,-0.066000,-1.007000,127.969000,-219.786000,113.786000,29.57
7.538750,1.688000,0.102000,-1.047000,133.756000,-202.901000,126.611000,29.61
7.548730,1.852000,0.324000,-1.081000,141.221000,-189.237000,138.748000,29.71
7.558692,1.960000,0.595000,-1.039000,147.160000,-179.053000,149.435000,29.66
7.568761,2.409000,0.486000,-0.812000,133.069000,-150.198000,163.160000,29.57
7.578742,2.454000,0.685000,-0.508000,74.794000,-143.374000,147.618000,29.61
7.588766,2.905000,1.003000,-0.712000,28.885000,-154.321000,129.817000,29.52
7.598756,2.988000,1.222000,-0.448000,21.954000,-164.137000,118.824000,29.57
7.608827,2.835000,1.017000,-0.111000,9.313000,-163.038000,105.649000,29.57
7.618789,2.600000,1.057000,0.783000,29.618000,-128.458000,78.366000,29.52
7.628776,2.567000,0.999000,1.061000,16.656000,-79.099000,67.374000,29.61
7.638850,2.685000,1.030000,1.038000,12.031000,-29.328000,66.382000,29.66
7.648871,2.920000,0.969000,1.036000,3.420000,11.939000,70.519000,29.66
7.658789,3.184000,0.958000,1.388000,-27.847000,72.962000,59.313000,29.57
7.668831,3.527000,1.100000,1.810000,-142.229000,140.824000,55.160000,29.52
7.678905,0.383000,0.250000,0.777000,-4.916000,176.885000,-4.626000,29.61
7.689006,1.340000,-0.173000,-2.729000,-81.130000,235.603000,-6.947000,29.57
7.699024,-0.094000,-0.105000,-2.796000,-15.191000,148.183000,-33.466000,29.57
7.708978,-0.779000,0.172000,-0.529000,-1.053000,135.969000,-86.962000,29.52
7.718997,0.417000,0.131000,-0.310000,-5.069000,189.985000,-114.412000,29.66
7.729118,1.989000,-0.062000,-2.294000,37.664000,156.397000,-86.397000,29.57
7.738934,1.398000,0.090000,-1.505000,12.366000,105.374000,-83.908000,29.57
7.748930,1.388000,-0.299000,-1.759000,-15.099000,50.977000,-89.756000,29.61
7.759010,0.864000,-0.347000,-1.154000,-23.832000,80.168000,-55.863000,29.52
7.769061,0.738000,-0.204000,-1.026000,-16.534000,80.351000,-38.031000,29.66
7.779072,0.777000,-0.296000,-1.131000,-14.504000,51.496000,-26.916000,29.57
7.788911,0.699000,-0.512000,-0.860000,-14.779000,44.427000,-17.130000,29.71
7.799024,0.655000,-0.552000,-0.914000,-15.542000,42.351000,-12.382000,29.61
7.809011,0.512000,-0.416000,-0.903000,-17.786000,39.588000,-12.702000,29.47
7.818997,0.533000,-0.548000,-0.870000,-20.748000,40.473000,-14.580000,29.66
7.828989,0.552000,-0.505000,-0.828000,-28.183000,39.924000,-17.878000,29.61
7.838729,0.490000,-0.431000,-0.827000,-36.992000,32.870000,-22.977000,29.71
7.848661,0.498000,-0.425000,-0.800000,-46.214000,28.015000,-28.519000,29.61
7.858633,0.555000,-0.284000,-0.908000,-50.046000,24.916000,-30.641000,29.57
7.868532,0.501000,-0.281000,-0.862000,-51.649000,22.656000,-31.786000,29.57
7.878500,0.543000,-0.325000,-0.844000,-50.641000,21.725000,-33.710000,29.52
7.888540,0.526000,-0.240000,-0.865000,-47.344000,21.084000,-33.786000,29.61
7.898528,0.555000,-0.219000,-0.943000,-40.611000,18.015000,-31.878000,29.57
7.908556,0.550000,-0.227000,-0.854000,-35.969000,14.947000,-29.802000,29.66
7.918513,0.525000,-0.177000,-0.832000,-31.206000,13.710000,-28.992000,29.52
7.928504,0.522000,-0.205000,-0.831000,-27.847000,15.206000,-28.397000,29.57
7.938534,0.520000,-0.244000,-0.832000,-26.733000,14.672000,-29.405000,29.66
7.948529,0.512000,-0.202000,-0.824000,-25.298000,16.901000,-29.282000,29.57
7.958540,0.523000,-0.165000,-0.841000,-23.832000,22.504000,-27.649000,29.52
7.968546,0.544000,-0.194000,-0.830000,-23.603000,19.908000,-26.733000,29.52
7.978572,0.540000,-0.164000,-0.863000,-22.733000,19.740000,-26.321000,29.57
7.988569,0.564000,-0.174000,-0.827000,-22.656000,20.412000,-26.321000,29.66
7.998575,0.503000,0.216000,-0.941000,-9.038000,19.252000,-34.779000,29.61
8.008671,0.543000,-0.088000,-0.839000,-18.916000,28.031000,-30.947000,29.52
8.018757,0.496000,-0.239000,-0.772000,-23.145000,34.870000,-29.435000,29.57
8.028642,0.519000,-0.163000,-0.846000,-23.313000,38.443000,-30.763000,29.47
8.038657,0.546000,-0.121000,-0.839000,-24.458000,48.305000,-29.756000,29.61
8.048703,0.551000,-0.107000,-0.845000,-21.817000,56.962000,-25.924000,29.61
8.058669,0.498000,-0.080000,-0.842000,-19.405000,66.305000,-23.298000,29.57
8.068731,0.546000,-0.099000,-0.851000,-19.542000,78.870000,-19.328000,29.57
8.078707,0.519000,-0.078000,-0.867000,-17.603000,94.275000,-16.916000,29.52
8.088779,0.532000,-0.169000,-0.837000,-19.771000,112.992000,-15.817000,29.61
8.098792,0.548000,-0.154000,-0.845000,-22.153000,135.069000,-17.206000,29.57
8.108829,0.524000,-0.158000,-0.830000,-25.466000,157.893000,-20.168000,29.57
8.118868,0.484000,-0.122000,-0.797000,-26.611000,179.374000,-27.191000,29.57
8.128714,0.533000,-0.081000,-0.772000,-26.244000,192.992000,-33.725000,29.61
8.138764,0.547000,-0.034000,-0.784000,-23.893000,199.481000,-36.626000,29.57
8.148760,0.487000,-0.057000,-0.776000,-39.359000,225.954000,-30.992000,29.57
8.158720,0.635000,-0.067000,-0.744000,-12.962000,243.832000,-44.626000,29.57
8.168810,0.526000,-0.044000,-0.755000,-17.695000,273.267000,-56.137000,29.61
8.178829,0.633000,-0.109000,-0.757000,-38.565000,287.664000,-67.924000,29.52
8.188873,0.870000,-0.141000,-0.791000,-47.878000,289.756000,-80.702000,29.57
8.198808,1.029000,-0.167000,-0.867000,-56.366000,336.931000,-96.809000,29.57
8.208749,1.096000,-0.249000,-0.859000,-59.267000,352.046000,-108.595000,29.61
8.218746,1.265000,-0.265000,-1.089000,-50.473000,377.405000,-115.038000,29.61
8.228664,1.586000,-0.118000,-1.264000,-50.947000,436.214000,-113.420000,29.47
8.238593,2.149000,-0.270000,-1.605000,-47.344000,474.046000,-111.924000,29.57
8.248599,2.114000,-0.196000,-1.342000,-66.565000,494.107000,-132.504000,29.61
8.258646,2.425000,-0.567000,-1.844000,7.359000,406.321000,-129.588000,29.71
8.268551,2.099000,-0.600000,-1.658000,80.824000,346.702000,-115.924000,29.61
8.278771,1.147000,-0.483000,-1.749000,-6.550000,316.458000,-163.481000,29.57
8.288548,1.420000,-0.953000,-2.233000,-69.893000,240.947000,-177.893000,29.66
8.298510,0.171000,-1.103000,-2.289000,-69.878000,110.382000,-117.786000,29.52
8.308490,2.527000,-2.278000,-4.000000,76.275000,110.672000,0.565000,29.61
8.318624,2.235000,-2.469000,-3.890000,-104.397000,-219.786000,8.305000,29.57
8.328502,-1.124000,-1.643000,-1.123000,-160.733000,-195.679000,7.038000,29.66
8.338591,-0.457000,-1.263000,-1.054000,-119.298000,-295.771000,34.534000,29.61
8.348620,-0.185000,-0.710000,-1.088000,-68.489000,-285.802000,75.527000,29.57
8.358535,-0.071000,-0.873000,-1.138000,-16.412000,-242.947000,111.847000,29.57
8.368526,0.162000,-0.899000,-1.312000,16.473000,-232.473000,130.947000,29.57
8.379616,0.339000,-0.841000,-1.356000,23.573000,-234.168000,135.069000,29.61
8.388543,0.373000,-0.578000,-1.140000,23.008000,-255.878000,127.145000,29.52
8.398471,0.401000,-0.333000,-1.055000,14.824000,-284.595000,99.557000,29.57
8.408486,0.539000,0.011000,-1.075000,22.336000,-301.328000,63.298000,29.57
8.418528,0.744000,0.229000,-1.166000,48.046000,-314.168000,27.282000,29.66
8.428496,0.889000,0.292000,-1.248000,90.489000,-336.534000,-4.779000,29.61
8.438530,0.935000,0.222000,-1.218000,136.519000,-357.939000,-31.908000,29.61
8.448543,1.038000,0.114000,-0.993000,180.412000,-350.260000,-47.420000,29.57
8.458514,1.218000,-0.135000,-0.861000,202.015000,-375.298000,-61.344000,29.57
8.468510,1.209000,0.002000,-1.035000,208.092000,-350.855000,-59.023000,29.61
8.478590,1.167000,-0.138000,-0.759000,222.748000,-382.137000,-43.847000,29.61
8.488935,1.220000,-0.282000,-0.851000,224.504000,-360.153000,-22.992000,29.57
8.499068,1.310000,-0.377000,-1.003000,217.313000,-338.183000,2.718000,29.57
8.509292,1.440000,-0.437000,-1.175000,205.267000,-307.603000,30.702000,29.52
8.519315,1.482000,-0.470000,-1.168000,200.092000,-281.435000,56.962000,29.61
8.528611,1.479000,-0.451000,-1.082000,205.008000,-264.779000,81.725000,29.57
8.540178,1.525000,-0.501000,-1.022000,205.985000,-244.000000,104.763000,29.47
8.549097,1.683000,-0.480000,-0.952000,199.511000,-215.420000,130.504000,29.57
8.558731,1.800000,-0.316000,-0.813000,188.427000,-179.359000,155.130000,29.61
8.568684,1.762000,-0.016000,-0.743000,182.366000,-144.290000,178.321000,29.61
8.578646,2.577000,0.167000,-0.600000,107.053000,-83.313000,185.557000,29.66
8.588713,2.304000,0.772000,-0.610000,72.183000,-49.481000,190.534000,29.57
8.599042,2.840000,1.471000,-1.765000,114.824000,-74.015000,199.939000,29.61
8.616956,2.944000,1.576000,-1.595000,144.214000,-91.359000,215.863000,29.57
8.619028,2.880000,1.338000,-0.765000,156.214000,-167.649000,163.115000,29.57
8.628709,2.544000,1.236000,-0.046000,75.145000,-156.611000,110.718000,29.57
8.638652,2.502000,1.406000,0.424000,29.847000,-144.580000,69.893000,29.61
8.648852,2.533000,1.248000,0.718000,7.282000,-111.954000,59.527000,29.61
8.659190,2.617000,1.039000,1.096000,-25.557000,-44.198000,67.008000,29.66
8.670608,2.640000,1.090000,1.502000,-75.511000,32.763000,78.947000,29.57
8.679533,2.995000,1.438000,1.609000,-216.641000,50.962000,103.450000,29.61
8.689551,3.136000,2.316000,1.893000,-108.519000,164.763000,42.336000,29.52
8.699487,0.460000,0.860000,-0.726000,-58.107000,197.542000,9.374000,29.47
8.709349,1.215000,0.566000,-3.687000,-62.198000,206.779000,-27.634000,29.57
8.719246,-0.420000,0.319000,-2.576000,14.397000,52.000000,-80.443000,29.57
8.729489,-0.585000,0.602000,0.031000,11.817000,119.649000,-127.695000,29.71
8.739438,1.135000,-0.108000,-1.080000,32.763000,204.153000,-131.008000,29.52
8.749260,2.524000,-0.300000,-2.675000,43.588000,140.092000,-90.443000,29.57
8.759215,1.571000,-0.288000,-1.527000,-2.656000,87.160000,-88.641000,29.57
8.769242,1.089000,-0.912000,-1.140000,-12.260000,89.313000,-65.359000,29.52
8.779480,0.738000,-0.622000,-0.832000,-9.893000,82.885000,-39.389000,29.61
8.789259,0.667000,-0.296000,-0.990000,-14.748000,76.550000,-37.023000,29.57
8.799228,0.927000,-0.594000,-0.923000,-21.130000,35.863000,-30.092000,29.66
8.809079,0.737000,-0.786000,-0.707000,-30.702000,25.695000,-22.763000,29.42
8.819138,0.521000,-0.552000,-0.795000,-39.252000,19.954000,-24.137000,29.57
8.829136,0.496000,-0.504000,-0.803000,-43.969000,16.321000,-28.015000,29.57
8.838939,0.518000,-0.531000,-0.751000,-56.168000,14.443000,-31.450000,29.66
8.849050,0.343000,-0.433000,-0.697000,-70.489000,18.092000,-36.962000,29.52
8.859045,0.379000,-0.455000,-0.817000,-81.359000,23.969000,-43.389000,29.61
8.869143,0.519000,-0.310000,-0.902000,-84.947000,24.779000,-43.756000,29.57
8.879088,0.457000,-0.285000,-0.866000,-86.473000,25.466000,-42.992000,29.57
8.889244,0.506000,-0.362000,-0.867000,-83.298000,28.336000,-42.290000,29.61
8.899164,0.558000,-0.311000,-0.885000,-74.168000,28.733000,-40.244000,29.61
8.909077,0.529000,-0.309000,-0.861000,-66.580000,25.237000,-39.145000,29.57
8.919018,0.598000,-0.236000,-0.918000,-55.450000,20.489000,-36.962000,29.57
8.929089,0.520000,-0.333000,-0.780000,-48.046000,17.878000,-37.328000,29.52
8.938992,0.532000,-0.253000,-0.850000,-45.176000,17.450000,-37.191000,29.52
8.949183,0.524000,-0.264000,-0.834000,-44.702000,13.939000,-38.366000,29.61
8.959126,0.535000,-0.159000,-0.848000,-41.603000,7.267000,-38.092000,29.57
8.969148,0.522000,-0.167000,-0.869000,-37.191000,5.313000,-37.450000,29.66
8.979039,0.530000,-0.173000,-0.839000,-33.832000,5.008000,-36.092000,29.52
8.989137,0.534000,-0.150000,-0.872000,-31.420000,8.336000,-34.779000,29.61
8.998971,0.534000,-0.178000,-0.846000,-30.427000,14.000000,-33.496000,29.57
9.008980,0.524000,-0.153000,-0.841000,-27.298000,19.160000,-31.985000,29.57
9.019128,0.524000,-0.086000,-0.860000,-22.962000,24.198000,-28.153000,29.52
9.029034,0.549000,-0.128000,-0.852000,-19.634000,29.695000,-24.809000,29.47
9.039103,0.541000,-0.116000,-0.866000,-16.122000,36.229000,-22.672000,29.57
9.049193,0.417000,0.178000,-0.951000,-5.038000,39.802000,-29.588000,29.47
9.059121,0.510000,-0.223000,-0.798000,-13.221000,51.282000,-22.260000,29.61
9.069111,0.520000,-0.193000,-0.816000,-12.382000,57.603000,-23.008000,29.52
9.079029,0.609000,-0.127000,-0.865000,-14.794000,68.397000,-18.794000,29.57
9.089131,0.512000,-0.113000,-0.843000,-14.198000,80.794000,-14.611000,29.57
9.099198,0.538000,-0.129000,-0.879000,-13.038000,94.718000,-9.817000,29.61
9.109022,0.563000,-0.176000,-0.845000,-14.809000,110.748000,-7.298000,29.52
9.119006,0.529000,-0.220000,-0.845000,-17.359000,132.290000,-8.519000,29.57
9.129139,0.549000,-0.199000,-0.818000,-20.885000,158.046000,-12.321000,29.57
9.139040,0.503000,-0.096000,-0.814000,-21.282000,183.206000,-19.084000,29.61
9.149033,0.485000,-0.077000,-0.781000,-21.985000,208.519000,-28.504000,29.61
9.159082,0.560000,-0.075000,-0.807000,-22.779000,227.344000,-33.374000,29.52
9.169129,0.533000,-0.104000,-0.807000,-19.038000,240.122000,-38.687000,29.57
9.179089,0.556000,-0.148000,-0.755000,-26.443000,266.290000,-49.557000,29.57
9.188899,0.468000,-0.198000,-0.833000,-34.473000,279.771000,-67.237000,29.61
9.199057,0.610000,-0.339000,-0.823000,-54.260000,314.244000,-94.229000,29.61
9.209066,0.905000,-0.380000,-0.928000,-72.198000,341.588000,-121.069000,29.57
9.219158,0.891000,-0.514000,-0.944000,-54.153000,397.466000,-137.053000,29.47
9.229238,1.516000,-0.656000,-1.591000,-13.069000,390.534000,-136.290000,29.61
9.238830,2.072000,-0.605000,-1.661000,26.687000,369.099000,-126.641000,29.61
9.248975,2.759000,-0.488000,-2.146000,31.557000,372.031000,-132.580000,29.57
9.258946,2.730000,-0.646000,-2.210000,39.298000,360.672000,-155.878000,29.66
9.269041,2.663000,-0.627000,-2.613000,-7.252000,310.641000,-173.756000,29.52
9.278986,0.704000,-1.371000,-2.520000,-34.183000,193.969000,-160.427000,29.61
9.288937,-0.616000,-3.644000,-3.372000,-35.328000,65.557000,-28.656000,29.57
9.298984,1.312000,-3.441000,-3.530000,-144.443000,-70.305000,9.588000,29.66
9.308997,-0.785000,-2.410000,-1.428000,-209.099000,-202.427000,30.198000,29.57
9.319062,-0.801000,-1.406000,-1.491000,-187.298000,-189.802000,65.221000,29.52
9.329153,-0.260000,-1.008000,-1.902000,-116.198000,-206.000000,105.710000,29.61
9.338922,-0.457000,-0.937000,-1.383000,-46.000000,-199.603000,133.145000,29.57
9.349086,-0.475000,-1.000000,-1.006000,-26.794000,-183.328000,131.802000,29.57
9.358991,-0.399000,-0.642000,-0.847000,-35.053000,-190.977000,108.000000,29.52
9.369124,-0.165000,-0.129000,-1.034000,-27.557000,-199.176000,75.053000,29.52
9.379006,0.188000,0.120000,-1.306000,2.779000,-218.962000,44.366000,29.66
9.388950,0.416000,0.097000,-1.437000,32.626000,-244.870000,13.954000,29.57
9.399080,0.512000,-0.023000,-1.385000,52.611000,-272.473000,-14.137000,29.52
9.409100,0.625000,-0.075000,-1.225000,65.588000,-290.794000,-31.954000,29.61
9.419089,0.618000,-0.229000,-0.999000,75.298000,-281.450000,-36.947000,29.57
9.429147,0.727000,-0.295000,-0.939000,89.863000,-279.145000,-31.282000,29.66
9.439018,0.864000,-0.348000,-0.966000,93.618000,-296.992000,-15.084000,29.57
9.449084,0.847000,-0.396000,-0.868000,97.802000,-286.519000,11.313000,29.61
9.459140,0.898000,-0.428000,-0.921000,103.786000,-284.809000,37.603000,29.61
9.469130,1.120000,-0.979000,-0.714000,90.779000,-266.580000,93.603000,29.57
9.479025,0.141000,0.106000,-0.604000,-11.435000,-249.191000,70.702000,29.57
9.488904,1.333000,1.014000,-2.206000,137.511000,-216.489000,122.687000,29.52
9.498988,1.317000,0.045000,-1.453000,206.260000,-234.763000,154.076000,29.57
9.509182,1.135000,-0.899000,-0.885000,154.977000,-222.580000,147.206000,29.66
9.519126,1.821000,-0.572000,-1.160000,82.534000,-212.824000,155.710000,29.57
9.529057,1.725000,-0.001000,-1.093000,45.481000,-199.649000,159.389000,29.71
9.543929,1.887000,0.393000,-1.147000,61.084000,-180.504000,168.321000,29.52
9.549109,2.057000,0.448000,-1.131000,80.183000,-190.183000,166.916000,29.57
9.559093,2.258000,0.358000,-1.069000,81.466000,-199.817000,152.473000,29.57
9.569079,2.382000,0.425000,-0.936000,76.489000,-208.244000,130.595000,29.61
9.578511,2.740000,0.406000,-0.382000,63.969000,-183.832000,103.282000,29.52
9.588526,3.004000,1.064000,-0.106000,79.969000,-123.420000,82.565000,29.57
9.598575,2.928000,1.260000,-0.233000,106.504000,-134.397000,67.802000,29.57
9.608567,2.704000,1.277000,-0.011000,119.130000,-126.153000,52.794000,29.52
9.618571,2.466000,1.264000,0.430000,98.519000,-106.107000,30.748000,29.52
9.628537,2.434000,1.340000,0.811000,68.519000,-72.962000,6.702000,29.52
9.638523,2.584000,1.269000,1.031000,36.763000,-33.252000,-16.534000,29.66
9.648548,2.793000,1.272000,1.219000,-3.588000,5.481000,-36.321000,29.57
9.658665,2.958000,1.364000,1.566000,-53.802000,55.130000,-52.397000,29.61
9.668646,2.289000,1.639000,1.608000,-82.687000,125.084000,-70.779000,29.52
9.678630,1.667000,-0.829000,-0.539000,-100.275000,193.618000,-18.290000,29.57
9.688614,0.474000,-0.588000,-2.851000,-5.084000,152.473000,-61.282000,29.57
9.698594,-0.002000,-1.275000,-1.193000,-5.008000,163.053000,-93.405000,29.61
9.708732,0.438000,-0.576000,-0.115000,27.603000,204.305000,-109.908000,29.47
9.718670,2.828000,-0.350000,-2.364000,14.214000,176.931000,-107.649000,29.57
9.728628,2.280000,-0.014000,-1.931000,-37.969000,139.802000,-66.870000,29.66
9.738690,0.754000,-0.177000,-0.891000,-21.939000,19.496000,-74.458000,29.61
9.748642,0.712000,-0.640000,-0.907000,-18.718000,49.130000,-45.542000,29.52
9.758649,0.816000,-0.367000,-0.903000,-33.160000,35.099000,-39.053000,29.57
9.768530,0.750000,-0.376000,-0.923000,-36.321000,21.282000,-29.237000,29.57
9.778523,0.663000,-0.429000,-0.845000,-41.420000,22.947000,-23.267000,29.61
9.788606,0.540000,-0.415000,-0.919000,-38.107000,16.427000,-20.336000,29.61
9.798464,0.540000,-0.351000,-0.980000,-34.290000,20.351000,-18.092000,29.66
9.808478,0.551000,-0.319000,-0.948000,-27.695000,19.435000,-14.931000,29.57
9.818525,0.507000,-0.285000,-0.918000,-23.573000,25.557000,-12.580000,29.61
9.828504,0.537000,-0.284000,-0.906000,-20.382000,27.634000,-10.229000,29.52
9.838548,0.508000,-0.328000,-0.854000,-19.481000,27.725000,-9.634000,29.57
9.848470,0.470000,-0.346000,-0.817000,-21.130000,28.351000,-11.298000,29.57
9.858483,0.457000,-0.349000,-0.800000,-24.168000,29.298000,-13.863000,29.52
9.868483,0.482000,-0.332000,-0.819000,-27.954000,31.374000,-16.122000,29.52
9.878501,0.490000,-0.320000,-0.792000,-30.107000,28.092000,-18.137000,29.61
9.888802,0.508000,-0.361000,-0.787000,-33.069000,26.901000,-20.992000,29.66
9.898832,0.517000,-0.327000,-0.792000,-35.008000,24.336000,-23.771000,29.57
9.908831,0.521000,-0.302000,-0.803000,-33.634000,23.038000,-24.931000,29.61
9.918746,0.533000,-0.268000,-0.821000,-31.099000,22.870000,-25.267000,29.57
9.928953,0.541000,-0.243000,-0.828000,-27.557000,23.206000,-25.008000,29.57
9.938952,0.546000,-0.177000,-0.839000,-21.679000,21.496000,-23.450000,29.57
9.949013,0.549000,-0.211000,-0.851000,-16.992000,21.573000,-21.847000,29.52
9.958979,-0.336000,0.046000,-1.064000,0.992000,12.656000,-42.901000,29.52
9.968949,1.003000,-0.347000,-0.852000,-17.786000,37.908000,-20.977000,29.57
9.978684,0.095000,-0.225000,-0.288000,-15.542000,53.099000,-11.450000,29.57
9.988993,0.434000,-0.118000,-0.781000,-17.267000,24.031000,-18.687000,29.61
9.998876,0.677000,-0.275000,-0.800000,-20.061000,28.092000,-19.145000,29.52
10.009194,0.502000,-0.459000,-0.784000,-20.565000,29.878000,-17.237000,29.66
