# Gait Analysis Data - MPU6050 IMU
# Duration: 10 seconds
# Format: timestamp(s),ax(g),ay(g),az(g),gx(deg/s),gy(deg/s),gz(deg/s),temp(C)
# Note: Document sensor placement (ankle/wrist) separately
timestamp,ax,ay,az,gx,gy,gz,temp
0.000804,0.414000,-0.096000,-0.990000,-10.580000,15.466000,-10.748000,28.81
0.001609,0.418000,-0.179000,-0.943000,-0.534000,14.550000,-9.969000,28.77
0.002256,0.459000,-0.202000,-0.895000,0.275000,12.214000,-7.908000,28.77
0.002890,0.454000,-0.252000,-0.886000,-3.969000,17.237000,-7.176000,28.72
0.003626,0.458000,-0.287000,-0.887000,-16.504000,26.366000,-6.473000,28.72
0.004475,0.445000,-0.250000,-0.815000,-21.359000,30.550000,-4.763000,28.67
0.005174,0.480000,-0.266000,-0.893000,-32.321000,30.458000,-3.450000,28.77
0.005821,0.461000,-0.247000,-0.856000,-19.511000,17.939000,-4.733000,28.72
0.006452,0.464000,-0.234000,-0.826000,-36.748000,37.985000,-5.557000,28.81
0.007072,0.454000,-0.235000,-0.813000,-50.519000,46.351000,-5.267000,28.77
0.007695,0.475000,-0.227000,-0.877000,-56.427000,47.359000,-2.183000,28.72
0.008311,0.452000,-0.216000,-0.844000,-57.328000,45.588000,-2.840000,28.72
0.008944,0.468000,-0.188000,-0.807000,-75.664000,56.611000,-2.321000,28.77
0.009998,0.441000,-0.191000,-0.948000,-48.260000,33.710000,-5.725000,28.86
0.010692,0.709000,0.052000,-0.922000,-61.450000,44.351000,6.687000,28.72
0.022864,0.583000,-0.123000,-0.570000,-108.885000,75.221000,1.786000,28.72
0.023636,0.432000,-0.185000,-1.298000,-5.084000,-7.618000,-3.740000,28.77
0.036356,0.489000,-0.124000,-0.702000,4.489000,-12.626000,0.198000,28.77
0.040138,0.427000,-0.207000,-0.846000,-3.573000,-3.069000,2.427000,28.72
0.040799,0.492000,-0.146000,-0.840000,-8.611000,-10.076000,9.450000,28.81
0.042035,0.485000,-0.140000,-0.970000,27.847000,-28.626000,5.557000,28.67
0.043569,0.450000,-0.143000,-0.839000,40.275000,-37.893000,5.679000,28.72
0.044530,0.467000,-0.143000,-0.841000,15.557000,-11.191000,3.878000,28.81
0.046002,0.469000,-0.149000,-0.851000,11.878000,-3.802000,3.435000,28.77
0.046599,0.454000,-0.164000,-0.862000,14.031000,-5.130000,2.534000,28.67
0.047815,0.452000,-0.169000,-0.836000,0.107000,8.519000,2.702000,28.72
0.048587,0.444000,-0.188000,-0.860000,-0.443000,7.771000,2.153000,28.72
0.049144,0.440000,-0.198000,-0.865000,-3.664000,10.214000,2.015000,28.86
0.049590,0.446000,-0.192000,-0.884000,-2.580000,9.511000,1.389000,28.77
0.050029,0.452000,-0.175000,-0.873000,-1.527000,10.382000,1.130000,28.81
0.050460,0.455000,-0.163000,-0.868000,-2.061000,13.710000,0.534000,28.81
0.050888,0.463000,-0.159000,-0.873000,-3.771000,16.962000,1.618000,28.77
0.051400,0.469000,-0.156000,-0.876000,-4.031000,20.672000,2.519000,28.72
0.051974,0.457000,-0.144000,-0.896000,-1.527000,23.084000,3.237000,28.72
0.052441,0.289000,0.026000,-0.966000,3.985000,24.382000,-7.008000,28.77
0.052900,0.504000,-0.158000,-0.896000,0.901000,20.015000,6.229000,28.77
0.053362,0.504000,-0.212000,-0.869000,11.664000,22.840000,3.496000,28.81
0.053884,0.498000,-0.196000,-0.869000,8.901000,26.977000,3.771000,28.72
0.054364,0.485000,-0.196000,-0.833000,13.725000,18.916000,3.969000,28.77
0.054804,0.477000,-0.205000,-0.858000,13.847000,18.366000,2.672000,28.77
0.055927,0.477000,-0.211000,-0.844000,15.160000,13.847000,2.412000,28.72
0.056703,0.496000,-0.195000,-0.833000,14.733000,9.267000,2.244000,28.72
0.057389,0.507000,-0.184000,-0.840000,15.160000,5.282000,2.672000,28.77
0.058459,0.511000,-0.184000,-0.841000,16.794000,-0.565000,2.595000,28.77
0.059647,0.510000,-0.193000,-0.832000,16.153000,-3.389000,3.557000,28.81
0.061497,0.506000,-0.193000,-0.846000,15.985000,-4.519000,3.802000,28.72
0.063378,0.494000,-0.208000,-0.854000,15.847000,-5.939000,3.618000,28.77
0.063984,0.497000,-0.217000,-0.852000,13.939000,-7.664000,4.107000,28.72
0.064461,0.525000,-0.209000,-0.844000,12.534000,-9.313000,3.496000,28.81
0.065120,0.530000,-0.203000,-0.839000,9.939000,-11.313000,3.328000,28.77
0.065629,0.494000,-0.196000,-0.817000,11.053000,-16.275000,3.237000,28.77
0.066099,0.460000,-0.208000,-0.802000,12.275000,-20.214000,2.183000,28.81
0.066565,0.432000,-0.233000,-0.797000,13.603000,-23.817000,1.557000,28.72
0.067072,0.432000,-0.240000,-0.819000,11.649000,-22.626000,1.069000,28.77
0.067562,0.417000,-0.246000,-0.839000,11.924000,-20.992000,1.023000,28.77
0.068020,0.425000,-0.262000,-0.844000,9.817000,-16.565000,-0.244000,28.72
0.068575,0.428000,-0.260000,-0.838000,4.870000,-9.725000,-1.756000,28.81
0.069209,0.428000,-0.249000,-0.860000,3.099000,-3.802000,-4.214000,28.77
0.069745,0.422000,-0.240000,-0.861000,1.878000,1.023000,-7.389000,28.81
0.070228,0.417000,-0.246000,-0.872000,3.038000,1.496000,-12.122000,28.72
0.070692,0.441000,-0.241000,-0.862000,4.534000,0.198000,-15.450000,28.77
0.071168,0.439000,-0.233000,-0.872000,5.802000,-2.275000,-18.824000,28.77
0.071635,0.465000,-0.216000,-0.872000,7.405000,-6.504000,-19.817000,28.72
0.072110,0.459000,-0.193000,-0.820000,5.481000,-6.809000,-19.511000,28.81
0.072589,0.438000,-0.209000,-0.840000,5.374000,-5.863000,-18.595000,28.67
0.073051,0.432000,-0.211000,-0.851000,6.962000,-8.977000,-17.267000,28.77
0.073523,0.431000,-0.208000,-0.843000,7.618000,-10.015000,-14.305000,28.72
0.073992,0.445000,-0.233000,-0.846000,4.595000,-5.023000,-12.687000,28.81
0.074455,0.442000,-0.219000,-0.863000,4.214000,-1.649000,-12.397000,28.86
0.074917,0.432000,-0.219000,-0.882000,1.847000,3.298000,-12.870000,28.72
0.075367,0.444000,-0.234000,-0.853000,2.489000,4.031000,-13.206000,28.72
0.075806,0.431000,-0.231000,-0.868000,2.244000,5.038000,-14.198000,28.72
0.076225,0.442000,-0.230000,-0.872000,2.977000,4.779000,-16.198000,28.77
0.076642,0.427000,-0.215000,-0.861000,2.992000,3.817000,-18.672000,28.81
0.077088,0.439000,-0.228000,-0.863000,2.840000,5.145000,-21.145000,28.72
0.077535,0.404000,-0.221000,-0.877000,3.527000,4.305000,-25.496000,28.77
0.077982,0.419000,-0.223000,-0.877000,3.069000,5.878000,-30.687000,28.77
0.078420,0.374000,-0.223000,-0.895000,6.885000,3.466000,-39.771000,28.81
0.078979,0.370000,-0.195000,-0.903000,10.931000,2.290000,-52.870000,28.72
0.079530,0.350000,-0.189000,-0.922000,18.427000,-2.794000,-67.863000,28.77
0.080049,0.346000,-0.157000,-0.927000,24.458000,-5.511000,-85.573000,28.72
0.080536,0.382000,-0.174000,-0.922000,35.893000,-13.695000,-101.374000,28.72
0.080984,0.411000,-0.190000,-0.873000,40.260000,-17.527000,-113.969000,28.77
0.081446,0.432000,-0.171000,-0.868000,44.794000,-21.008000,-123.374000,28.77
0.081887,0.466000,-0.177000,-0.841000,43.725000,-20.046000,-128.733000,28.72
0.082332,0.488000,-0.190000,-0.850000,45.450000,-23.740000,-129.145000,28.72
0.082766,0.498000,-0.175000,-0.845000,50.794000,-31.603000,-126.977000,28.77
0.083208,0.502000,-0.186000,-0.819000,44.901000,-30.626000,-121.939000,28.77
0.083645,0.525000,-0.203000,-0.791000,36.382000,-24.870000,-111.802000,28.81
0.084080,0.530000,-0.143000,-0.821000,25.252000,-16.214000,-100.214000,28.72
0.084510,0.517000,-0.131000,-0.825000,20.198000,-6.092000,-89.832000,28.77
0.084953,0.490000,-0.141000,-0.872000,17.328000,-3.313000,-82.122000,28.81
0.085390,0.486000,-0.148000,-0.880000,27.344000,-3.344000,-77.160000,28.62
0.085820,0.479000,-0.151000,-0.886000,35.221000,-5.099000,-71.588000,28.77
0.086254,0.479000,-0.143000,-0.885000,39.267000,-6.198000,-66.870000,28.67
0.086696,0.446000,-0.130000,-0.894000,45.557000,-9.405000,-65.710000,28.72
0.087135,0.463000,-0.143000,-0.864000,50.260000,-9.756000,-64.336000,28.72
0.087558,0.467000,-0.170000,-0.863000,51.527000,-9.878000,-64.412000,28.77
0.087999,0.477000,-0.174000,-0.858000,52.595000,-10.183000,-64.916000,28.67
0.088429,0.458000,-0.176000,-0.836000,52.672000,-9.328000,-67.389000,28.72
0.088855,0.471000,-0.189000,-0.837000,51.405000,-9.893000,-68.962000,28.81
0.089426,0.503000,-0.231000,-0.819000,49.008000,-11.176000,-67.496000,28.67
0.090076,0.521000,-0.206000,-0.822000,44.947000,-10.947000,-64.366000,28.81
0.090543,0.527000,-0.216000,-0.810000,42.137000,-11.740000,-60.580000,28.81
0.090992,0.538000,-0.215000,-0.799000,38.183000,-13.771000,-54.382000,28.72
0.091434,0.539000,-0.204000,-0.800000,29.206000,-10.702000,-46.305000,28.86
0.091867,0.537000,-0.193000,-0.791000,24.901000,-8.962000,-38.107000,28.81
0.092315,0.537000,-0.206000,-0.799000,18.992000,-6.015000,-27.985000,28.81
0.092790,0.529000,-0.183000,-0.817000,12.489000,-0.198000,-17.267000,28.77
0.093223,0.530000,-0.179000,-0.834000,8.855000,2.794000,-7.924000,28.77
0.093647,0.507000,-0.175000,-0.843000,9.771000,2.916000,-0.427000,28.72
0.094061,0.489000,-0.182000,-0.871000,8.198000,5.420000,4.137000,28.81
0.094477,0.468000,-0.198000,-0.865000,12.321000,2.794000,4.992000,28.77
0.095182,0.469000,-0.209000,-0.859000,14.733000,1.115000,4.763000,28.81
0.095633,0.464000,-0.214000,-0.842000,14.214000,1.618000,4.107000,28.72
0.096062,0.471000,-0.238000,-0.838000,12.656000,2.168000,3.389000,28.81
0.096511,0.467000,-0.235000,-0.837000,10.885000,2.580000,2.427000,28.67
0.096931,0.480000,-0.241000,-0.838000,7.679000,4.672000,1.924000,28.77
0.097353,0.479000,-0.232000,-0.845000,6.672000,5.252000,1.053000,28.81
0.097767,0.478000,-0.227000,-0.844000,5.878000,5.191000,0.794000,28.72
0.098190,0.473000,-0.216000,-0.847000,5.893000,5.023000,1.359000,28.77
0.098603,0.463000,-0.213000,-0.848000,6.489000,4.656000,1.435000,28.77
0.099038,0.478000,-0.219000,-0.844000,7.130000,4.153000,2.107000,28.72
0.099472,0.477000,-0.226000,-0.845000,7.603000,4.153000,2.031000,28.62
0.099884,0.465000,-0.225000,-0.846000,7.634000,3.802000,1.725000,28.77
0.100315,0.472000,-0.228000,-0.833000,6.244000,4.550000,1.069000,28.72
0.100732,0.473000,-0.240000,-0.836000,5.389000,4.794000,0.992000,28.81
0.101150,0.472000,-0.235000,-0.836000,4.962000,4.031000,0.794000,28.67
0.101565,0.486000,-0.244000,-0.842000,3.985000,3.756000,0.641000,28.77
0.101984,0.481000,-0.239000,-0.832000,3.603000,3.237000,0.397000,28.72
0.102398,0.479000,-0.237000,-0.827000,3.527000,2.458000,0.015000,28.72
0.102818,0.476000,-0.237000,-0.839000,3.634000,1.710000,0.336000,28.77
0.103235,0.482000,-0.241000,-0.839000,4.000000,0.244000,0.031000,28.67
0.103663,0.480000,-0.241000,-0.836000,4.305000,-0.992000,-0.122000,28.81
0.104086,0.476000,-0.242000,-0.838000,4.412000,-2.031000,-0.290000,28.72
0.104518,0.472000,-0.242000,-0.827000,4.733000,-2.305000,-0.595000,28.77
0.105041,0.460000,-0.254000,-0.824000,4.611000,-2.061000,-0.947000,28.81
0.105659,0.459000,-0.237000,-0.838000,3.145000,-0.733000,-1.237000,28.72
0.106124,0.469000,-0.243000,-0.841000,2.611000,0.244000,-1.359000,28.77
0.106565,0.468000,-0.240000,-0.835000,2.153000,0.840000,-1.069000,28.77
0.106980,0.467000,-0.241000,-0.851000,2.901000,0.931000,-1.374000,28.72
0.107394,0.472000,-0.241000,-0.842000,3.084000,0.611000,-1.420000,28.72
0.107812,0.475000,-0.240000,-0.839000,2.519000,1.664000,-1.038000,28.67
0.108229,0.470000,-0.243000,-0.845000,2.137000,2.626000,-0.641000,28.77
0.108651,0.474000,-0.237000,-0.837000,1.786000,2.962000,-0.626000,28.62
0.109062,0.472000,-0.244000,-0.843000,1.542000,3.298000,-0.260000,28.72
0.109486,0.468000,-0.244000,-0.844000,1.176000,3.130000,-0.244000,28.77
0.109908,0.478000,-0.242000,-0.840000,0.931000,2.687000,-0.214000,28.67
0.110329,0.474000,-0.248000,-0.843000,0.611000,2.092000,-0.015000,28.81
0.110745,0.474000,-0.250000,-0.830000,0.153000,1.344000,-0.137000,28.77
0.111182,0.469000,-0.250000,-0.827000,-0.351000,0.931000,-0.336000,28.67
0.111628,0.472000,-0.250000,-0.829000,-1.527000,0.870000,-0.382000,28.62
0.112054,0.474000,-0.253000,-0.829000,-2.595000,0.565000,-0.702000,28.72
0.112478,0.474000,-0.253000,-0.833000,-2.901000,-0.061000,-0.687000,28.86
0.112905,0.468000,-0.252000,-0.847000,-3.298000,-0.580000,-0.870000,28.77
0.113330,0.469000,-0.247000,-0.835000,-3.435000,-0.962000,-1.053000,28.72
0.113756,0.474000,-0.252000,-0.853000,-2.000000,-3.069000,-0.809000,28.81
0.114182,0.467000,-0.249000,-0.831000,-2.046000,-3.328000,-0.855000,28.77
0.114611,0.463000,-0.254000,-0.846000,-1.023000,-3.863000,-1.069000,28.77
0.115088,0.462000,-0.260000,-0.847000,-0.626000,-3.924000,-1.282000,28.72
0.115523,0.458000,-0.253000,-0.853000,-0.763000,-3.008000,-1.176000,28.77
0.115947,0.460000,-0.251000,-0.857000,-1.221000,-2.290000,-1.511000,28.77
0.116375,0.458000,-0.241000,-0.859000,0.580000,-3.511000,-1.573000,28.72
0.116809,0.465000,-0.245000,-0.871000,1.237000,-3.420000,-1.863000,28.72
0.117243,0.461000,-0.231000,-0.879000,1.511000,-4.489000,-2.779000,28.67
0.117688,0.466000,-0.225000,-0.914000,1.450000,-4.809000,-2.947000,28.77
0.118112,0.465000,-0.217000,-0.879000,5.420000,-10.061000,-4.489000,28.72
0.118544,0.446000,-0.200000,-0.923000,4.183000,-9.588000,-6.015000,28.72
0.119118,0.445000,-0.179000,-0.922000,7.221000,-13.389000,-9.405000,28.77
0.119720,0.413000,-0.170000,-0.932000,12.153000,-17.115000,-12.855000,28.77
0.120189,0.383000,-0.179000,-0.907000,17.496000,-20.794000,-18.031000,28.72
0.120651,0.383000,-0.196000,-0.874000,21.450000,-24.137000,-21.924000,28.72
0.121157,0.377000,-0.192000,-0.914000,22.672000,-18.366000,-29.969000,28.77
0.121619,0.307000,-0.129000,-0.967000,22.977000,-17.542000,-40.733000,28.72
0.122058,0.469000,-0.256000,-0.924000,29.313000,-18.595000,-43.130000,28.72
0.122499,0.433000,-0.217000,-0.861000,36.977000,-22.107000,-46.122000,28.72
0.122969,0.442000,-0.217000,-0.845000,38.122000,-22.702000,-48.260000,28.67
0.123442,0.372000,-0.188000,-0.877000,35.053000,-19.374000,-52.763000,28.77
0.123915,0.382000,-0.221000,-0.866000,36.702000,-24.504000,-55.557000,28.72
0.124384,0.405000,-0.224000,-0.812000,31.969000,-22.641000,-59.008000,28.77
0.124835,0.432000,-0.258000,-0.770000,27.954000,-20.824000,-58.565000,28.67
0.125295,0.421000,-0.224000,-0.798000,22.580000,-18.595000,-61.282000,28.72
0.125737,0.383000,-0.137000,-0.859000,18.916000,-20.519000,-68.794000,28.62
0.126241,0.361000,-0.070000,-0.921000,11.481000,-20.672000,-77.298000,28.67
0.126746,0.314000,0.032000,-0.948000,7.221000,-24.122000,-91.191000,28.72
0.127227,0.279000,0.117000,-1.028000,14.626000,-37.481000,-111.420000,28.81
0.127676,0.316000,0.203000,-0.994000,5.878000,-37.725000,-131.191000,28.72
0.128135,0.315000,0.265000,-1.093000,20.458000,-49.618000,-158.107000,28.77
0.128580,0.361000,0.315000,-1.034000,44.641000,-65.313000,-188.214000,28.77
0.129124,0.403000,0.322000,-1.033000,51.679000,-79.145000,-212.931000,28.72
0.129698,0.527000,0.248000,-0.970000,69.450000,-80.931000,-233.527000,28.81
0.130165,0.607000,0.273000,-0.959000,70.427000,-92.061000,-244.855000,28.67
0.130633,0.589000,0.218000,-0.758000,74.153000,-72.840000,-260.641000,28.67
0.131122,0.681000,0.157000,-0.877000,62.931000,-60.565000,-268.198000,28.72
0.131719,0.766000,0.018000,-0.780000,70.824000,-61.695000,-265.649000,28.86
0.132196,0.766000,-0.063000,-0.742000,69.603000,-57.588000,-255.649000,28.67
0.132639,0.728000,-0.128000,-0.724000,73.771000,-48.565000,-248.565000,28.72
0.133086,0.724000,-0.193000,-0.780000,74.046000,-40.092000,-238.397000,28.72
0.133536,0.708000,-0.221000,-0.797000,76.931000,-39.939000,-224.336000,28.77
0.133969,0.661000,-0.242000,-0.798000,77.573000,-39.389000,-209.634000,28.77
0.134407,0.637000,-0.258000,-0.797000,77.359000,-39.756000,-195.618000,28.72
0.134856,0.592000,-0.256000,-0.815000,77.878000,-38.504000,-183.740000,28.72
0.135304,0.585000,-0.272000,-0.839000,76.153000,-36.855000,-172.244000,28.67
0.135743,0.565000,-0.241000,-0.822000,72.092000,-34.840000,-162.153000,28.67
0.136210,0.539000,-0.217000,-0.812000,69.313000,-32.321000,-154.672000,28.72
0.136649,0.490000,-0.182000,-0.807000,65.069000,-29.405000,-149.496000,28.72
0.137092,0.481000,-0.154000,-0.834000,61.405000,-27.176000,-146.351000,28.77
0.137537,0.477000,-0.127000,-0.859000,58.427000,-25.450000,-145.328000,28.77
0.137980,0.469000,-0.092000,-0.876000,57.023000,-28.458000,-146.046000,28.72
0.138420,0.465000,-0.072000,-0.855000,53.847000,-27.710000,-148.504000,28.72
0.138877,0.475000,-0.074000,-0.881000,53.618000,-28.962000,-150.611000,28.67
0.139437,0.214000,0.006000,-0.204000,0.840000,-32.931000,-156.260000,28.72
0.139878,0.517000,-0.097000,-0.743000,31.420000,-39.313000,-145.771000,28.72
0.140312,0.507000,-0.095000,-0.832000,28.748000,-48.214000,-142.901000,28.67
0.140762,0.490000,-0.104000,-0.858000,37.817000,-45.985000,-146.504000,28.77
0.141221,0.513000,-0.140000,-0.884000,45.023000,-40.260000,-146.595000,28.81
0.141747,0.527000,-0.167000,-0.876000,51.298000,-34.687000,-144.260000,28.81
0.142338,0.483000,-0.190000,-0.812000,56.504000,-32.214000,-140.076000,28.77
0.142841,0.501000,-0.220000,-0.828000,58.412000,-30.840000,-132.962000,28.67
0.143291,0.458000,-0.229000,-0.797000,54.962000,-42.412000,-124.473000,28.72
0.143752,0.455000,-0.230000,-0.841000,52.229000,-36.214000,-117.985000,28.72
0.144200,0.491000,-0.262000,-0.832000,54.580000,-35.496000,-112.137000,28.67
0.144644,0.444000,-0.307000,-0.796000,47.847000,-31.405000,-103.817000,28.81
0.145086,0.479000,-0.338000,-0.825000,52.733000,-19.084000,-98.153000,28.72
0.145523,0.449000,-0.367000,-0.798000,54.122000,-6.031000,-92.992000,28.72
0.146065,0.457000,-0.397000,-0.825000,59.344000,5.725000,-84.687000,28.77
0.146534,0.487000,-0.510000,-0.813000,44.351000,11.176000,-70.626000,28.62
0.146969,0.515000,-0.539000,-0.796000,49.359000,18.046000,-62.214000,28.72
0.147407,0.480000,-0.603000,-0.719000,48.397000,20.458000,-49.160000,28.77
0.147835,0.520000,-0.615000,-0.702000,33.405000,26.290000,-31.557000,28.67
0.148270,0.549000,-0.606000,-0.738000,28.321000,24.824000,-14.504000,28.81
0.148686,0.541000,-0.532000,-0.683000,9.496000,35.237000,-5.695000,28.81
0.149256,0.413000,-0.277000,-0.822000,-1.969000,6.947000,-1.237000,28.67
0.149824,0.290000,-0.088000,-0.882000,-3.542000,9.252000,-6.076000,28.72
0.150288,0.324000,-0.123000,-0.910000,-6.092000,-0.733000,-9.008000,28.81
0.150739,0.365000,-0.206000,-0.864000,-3.420000,-17.588000,-7.924000,28.72
0.151241,0.416000,-0.239000,-0.859000,-9.450000,-28.687000,-6.962000,28.77
0.151749,0.413000,-0.209000,-0.927000,-12.443000,-25.252000,-9.084000,28.77
0.152218,0.401000,-0.147000,-0.917000,-16.260000,-23.267000,-11.008000,28.81
0.152672,0.422000,-0.122000,-0.994000,-14.198000,-17.802000,-8.916000,28.72
0.153115,0.416000,-0.117000,-0.972000,-14.046000,-17.435000,-6.519000,28.77
0.153563,0.387000,-0.099000,-0.946000,-10.931000,-17.069000,-4.519000,28.81
0.154017,0.391000,-0.117000,-0.901000,-9.374000,-14.198000,-4.076000,28.72
0.154468,0.394000,-0.134000,-0.942000,-9.282000,-13.191000,-2.290000,28.67
0.154918,0.387000,-0.128000,-0.911000,-8.458000,-11.802000,-0.779000,28.72
0.155356,0.381000,-0.138000,-0.913000,-9.573000,-9.557000,-0.473000,28.72
0.155802,0.337000,-0.167000,-0.894000,-10.504000,-8.550000,-1.969000,28.81
0.156311,0.337000,-0.185000,-0.891000,-11.786000,-6.137000,-3.206000,28.77
0.156831,0.337000,-0.168000,-0.918000,-13.771000,-3.695000,-5.237000,28.67
0.157276,0.374000,-0.151000,-0.912000,-14.794000,0.519000,-5.969000,28.72
0.157707,0.801000,-0.164000,-0.816000,-68.244000,-11.282000,12.336000,28.72
0.158123,0.389000,-0.083000,-0.815000,-29.038000,-1.817000,4.137000,28.86
0.158549,0.334000,-0.111000,-0.970000,-19.588000,-13.969000,6.565000,28.72
0.159027,0.311000,-0.123000,-0.953000,-6.000000,2.977000,1.221000,28.72
0.159540,0.299000,-0.133000,-0.919000,-0.885000,9.130000,-2.198000,28.77
0.160011,0.404000,-0.135000,-0.966000,2.168000,-2.427000,1.756000,28.77
0.160482,0.327000,-0.155000,-0.919000,-1.466000,7.740000,-2.718000,28.72
0.160992,0.371000,-0.133000,-0.924000,-6.595000,4.885000,2.137000,28.72
0.161479,0.367000,-0.134000,-0.933000,-3.527000,11.252000,0.351000,28.77
0.161933,0.369000,-0.120000,-0.923000,-6.198000,8.916000,1.588000,28.77
0.162372,0.365000,-0.138000,-0.918000,-4.779000,8.198000,1.817000,28.72
0.162819,0.367000,-0.137000,-0.923000,-4.198000,9.725000,1.603000,28.72
0.163253,0.360000,-0.132000,-0.925000,-2.046000,10.382000,0.748000,28.77
0.163694,0.357000,-0.133000,-0.920000,0.687000,10.076000,0.076000,28.62
0.164161,0.362000,-0.144000,-0.913000,5.466000,10.183000,-1.130000,28.72
0.164609,0.355000,-0.128000,-0.910000,9.038000,8.092000,-1.954000,28.67
0.165080,0.358000,-0.123000,-0.900000,10.351000,7.878000,-2.534000,28.72
0.165502,0.334000,-0.110000,-0.897000,11.252000,10.244000,-2.809000,28.81
0.165923,0.336000,-0.106000,-0.899000,12.183000,11.206000,-2.855000,28.62
0.166346,0.336000,-0.113000,-0.918000,13.511000,11.695000,-2.153000,28.77
0.166760,0.345000,-0.099000,-0.934000,15.344000,13.313000,-1.542000,28.77
0.167194,0.351000,-0.120000,-0.935000,18.092000,14.412000,-0.672000,28.72
0.167618,0.368000,-0.173000,-0.914000,20.183000,16.443000,-0.519000,28.72
0.168035,0.391000,-0.207000,-0.917000,19.771000,18.000000,-1.542000,28.67
0.168483,0.407000,-0.200000,-0.950000,11.939000,31.099000,-3.771000,28.67
0.168904,0.414000,-0.223000,-0.871000,8.321000,19.053000,-3.069000,28.72
0.169525,0.427000,-0.221000,-0.865000,4.107000,10.198000,-3.649000,28.77
0.170009,0.405000,-0.228000,-0.888000,-3.496000,8.565000,-4.214000,28.67
0.170452,0.405000,-0.216000,-0.874000,-8.061000,4.748000,-6.046000,28.72
0.170903,0.386000,-0.182000,-0.896000,-10.855000,4.061000,-7.893000,28.72
0.171391,0.374000,-0.134000,-0.913000,-11.802000,4.290000,-8.015000,28.77
0.171864,0.375000,-0.112000,-0.919000,-10.977000,5.069000,-6.840000,28.67
0.172306,0.382000,-0.123000,-0.922000,-9.374000,5.695000,-5.481000,28.72
0.172741,0.378000,-0.143000,-0.921000,-8.015000,7.496000,-4.763000,28.72
0.173181,0.397000,-0.143000,-0.926000,-5.389000,8.382000,-4.763000,28.67
0.173656,0.403000,-0.140000,-0.910000,-3.695000,7.954000,-4.519000,28.67
0.174181,0.405000,-0.134000,-0.907000,-4.092000,8.901000,-3.954000,28.72
0.174614,0.387000,-0.124000,-0.918000,-2.107000,6.809000,-3.023000,28.67
0.175035,0.389000,-0.129000,-0.912000,-0.977000,6.046000,-2.443000,28.77
0.175446,0.391000,-0.140000,-0.905000,0.076000,5.176000,-2.061000,28.72
0.175868,0.395000,-0.143000,-0.913000,0.534000,4.702000,-1.740000,28.72
0.176280,0.391000,-0.147000,-0.903000,0.595000,4.137000,-1.725000,28.77
0.176699,0.390000,-0.147000,-0.887000,-0.183000,2.977000,-1.053000,28.77
0.177118,0.381000,-0.139000,-0.904000,-0.244000,3.359000,-1.237000,28.62
0.177536,0.387000,-0.134000,-0.899000,0.595000,3.863000,-0.855000,28.72
0.177958,0.377000,-0.134000,-0.902000,0.550000,5.099000,-0.534000,28.77
0.178370,0.389000,-0.153000,-0.897000,0.550000,5.252000,-0.412000,28.67
0.178786,0.395000,-0.147000,-0.897000,0.061000,5.389000,-0.427000,28.81
0.179206,0.392000,-0.151000,-0.897000,-0.977000,5.191000,-0.336000,28.67
0.179630,0.393000,-0.143000,-0.889000,-1.771000,4.046000,-0.504000,28.77
0.180053,0.392000,-0.160000,-0.887000,-3.588000,3.053000,-0.580000,28.81
0.180502,0.397000,-0.156000,-0.888000,-4.015000,1.756000,-1.282000,28.72
0.180934,0.396000,-0.163000,-0.910000,-4.366000,1.023000,-1.206000,28.67
0.181353,0.404000,-0.154000,-0.902000,-5.298000,0.687000,-1.191000,28.86
0.181800,0.400000,-0.134000,-0.906000,-5.053000,0.779000,-0.748000,28.72
0.182287,0.389000,-0.142000,-0.895000,-4.534000,0.962000,-0.473000,28.81
0.182746,0.387000,-0.147000,-0.892000,-3.542000,1.618000,-0.611000,28.77
0.183196,0.396000,-0.145000,-0.913000,-2.519000,2.489000,-0.824000,28.77
0.183622,0.393000,-0.148000,-0.910000,-1.756000,2.809000,-0.687000,28.72
0.184199,0.389000,-0.154000,-0.902000,-1.053000,2.870000,-0.840000,28.72
0.184792,0.400000,-0.157000,-0.901000,-1.618000,1.847000,-0.794000,28.67
0.185245,0.402000,-0.160000,-0.900000,-1.771000,0.870000,-1.221000,28.72
0.185698,0.403000,-0.165000,-0.893000,-2.458000,-0.504000,-1.145000,28.72
0.186207,0.393000,-0.161000,-0.898000,-4.473000,-1.130000,-1.450000,28.77
0.186676,0.398000,-0.157000,-0.894000,-6.107000,-2.015000,-1.420000,28.67
0.187122,0.391000,-0.148000,-0.913000,-6.565000,-1.832000,-1.435000,28.72
0.187556,0.391000,-0.148000,-0.911000,-7.008000,-1.450000,-1.466000,28.72
0.188001,0.387000,-0.146000,-0.919000,-6.153000,-0.550000,-1.542000,28.67
0.188436,0.394000,-0.141000,-0.912000,-6.351000,0.504000,-1.420000,28.72
0.188876,0.395000,-0.126000,-0.913000,-5.969000,0.824000,-0.656000,28.62
0.189349,0.395000,-0.139000,-0.914000,-4.947000,1.038000,-0.427000,28.67
0.189898,0.395000,-0.141000,-0.913000,-4.168000,1.176000,-0.198000,28.72
0.190378,0.388000,-0.143000,-0.914000,-3.282000,1.588000,-0.122000,28.72
0.190825,0.394000,-0.135000,-0.906000,-2.153000,1.618000,0.321000,28.72
0.191300,0.393000,-0.138000,-0.909000,-1.878000,1.282000,0.962000,28.67
0.191742,0.385000,-0.138000,-0.908000,-1.267000,1.435000,1.191000,28.67
0.192160,0.384000,-0.121000,-0.917000,-0.748000,1.588000,1.954000,28.72
0.192581,0.382000,-0.132000,-0.924000,-0.504000,2.183000,2.443000,28.72
0.192996,0.386000,-0.146000,-0.920000,-0.290000,2.046000,3.069000,28.77
0.193408,0.381000,-0.141000,-0.913000,0.702000,1.817000,3.084000,28.72
0.193902,0.382000,-0.139000,-0.919000,1.344000,2.275000,3.099000,28.72
0.194407,0.381000,-0.142000,-0.909000,2.534000,2.092000,3.237000,28.77
0.194854,0.382000,-0.154000,-0.900000,2.885000,1.405000,3.099000,28.72
0.195289,0.384000,-0.155000,-0.890000,2.321000,1.359000,2.656000,28.72
0.195718,0.385000,-0.158000,-0.897000,0.901000,1.450000,2.611000,28.72
0.196194,0.389000,-0.149000,-0.891000,-0.779000,1.679000,2.260000,28.67
0.196648,0.402000,-0.157000,-0.896000,-1.908000,1.847000,2.550000,28.77
0.197118,0.383000,-0.146000,-0.898000,-2.489000,1.573000,2.611000,28.62
0.197608,0.383000,-0.152000,-0.902000,-2.687000,1.649000,2.626000,28.62
0.198062,0.393000,-0.150000,-0.909000,-2.473000,1.496000,2.504000,28.67
0.198486,0.384000,-0.154000,-0.909000,-1.359000,0.992000,2.427000,28.62
0.198906,0.382000,-0.150000,-0.903000,-0.198000,0.244000,2.595000,28.72
0.199322,0.383000,-0.140000,-0.909000,1.176000,0.534000,2.565000,28.67
0.199744,0.381000,-0.133000,-0.909000,2.779000,0.672000,3.023000,28.77
0.200162,0.375000,-0.143000,-0.906000,4.336000,0.489000,3.389000,28.72
0.200583,0.377000,-0.150000,-0.906000,4.397000,1.069000,3.282000,28.72
0.201009,0.377000,-0.164000,-0.897000,4.565000,2.763000,2.916000,28.77
0.201424,0.368000,-0.173000,-0.888000,3.664000,4.153000,2.626000,28.67
0.201838,0.372000,-0.187000,-0.887000,3.344000,6.183000,1.038000,28.62
0.202276,0.366000,-0.177000,-0.895000,2.550000,8.809000,-1.466000,28.62
0.202716,0.348000,-0.149000,-0.870000,1.725000,11.267000,-3.634000,28.77
0.203134,0.336000,-0.133000,-0.876000,0.061000,12.550000,-6.977000,28.62
0.203555,0.343000,-0.130000,-0.888000,-3.450000,12.611000,-9.252000,28.72
0.204081,0.359000,-0.121000,-0.906000,-5.023000,13.573000,-14.229000,28.77
0.204680,0.392000,-0.093000,-0.937000,-6.336000,13.084000,-22.412000,28.72
0.205135,0.355000,-0.003000,-0.951000,-8.840000,11.939000,-34.153000,28.72
0.205577,0.317000,0.087000,-0.982000,-2.885000,6.336000,-52.443000,28.81
0.206047,0.341000,0.181000,-0.999000,9.069000,-1.450000,-75.771000,28.67
0.206510,0.374000,0.234000,-1.008000,19.817000,-11.084000,-102.046000,28.77
0.206951,0.449000,0.225000,-0.957000,35.924000,-19.756000,-129.389000,28.72
0.207406,0.472000,0.283000,-0.914000,45.863000,-30.397000,-155.237000,28.72
0.207849,-0.064000,0.635000,-1.303000,43.389000,-62.794000,-208.092000,28.77
0.208289,0.715000,-0.371000,-1.648000,57.527000,-62.412000,-216.611000,28.72
0.208734,0.508000,0.072000,-0.734000,90.534000,-64.427000,-240.565000,28.72
0.209174,0.481000,-0.174000,-0.615000,104.473000,-67.771000,-251.618000,28.67
0.209610,0.748000,-0.241000,-0.882000,98.763000,-48.885000,-242.397000,28.72
0.210049,0.543000,-0.282000,-0.741000,100.580000,-47.511000,-237.740000,28.62
0.210496,0.542000,-0.286000,-0.977000,219.435000,-82.427000,-258.275000,28.72
0.210936,0.406000,-0.413000,-0.726000,62.427000,-35.832000,-218.489000,28.67
0.211377,0.396000,-0.393000,-0.815000,63.908000,-37.924000,-219.267000,28.77
0.211816,0.303000,-0.430000,-0.940000,42.198000,-51.573000,-196.366000,28.72
0.212251,0.238000,-0.430000,-0.963000,42.733000,-49.725000,-177.588000,28.62
0.212694,0.218000,-0.376000,-0.924000,44.641000,-22.962000,-158.473000,28.77
0.213131,0.270000,-0.342000,-0.936000,43.435000,-5.237000,-133.756000,28.77
0.213559,0.306000,-0.278000,-0.956000,47.053000,4.198000,-106.733000,28.72
0.214089,0.322000,-0.214000,-0.947000,51.237000,10.382000,-79.328000,28.77
0.214659,0.323000,-0.210000,-0.889000,48.366000,22.031000,-49.634000,28.77
0.215148,0.265000,-0.185000,-0.953000,47.679000,85.496000,-31.771000,28.81
0.215645,0.258000,0.190000,-0.969000,19.679000,37.740000,-2.870000,28.72
0.216095,0.217000,0.168000,-1.044000,48.885000,15.359000,0.947000,28.67
0.216512,0.382000,-0.174000,-0.818000,39.481000,37.542000,3.695000,28.67
0.216946,0.491000,-0.193000,-0.922000,72.198000,-151.557000,19.969000,28.72
0.217379,0.452000,-0.243000,-0.364000,24.489000,-1.053000,19.817000,28.72
0.217808,0.358000,-0.331000,-0.969000,46.534000,-16.962000,7.099000,28.77
0.218221,0.391000,-0.313000,-0.892000,28.550000,0.702000,3.420000,28.67
0.218674,0.430000,-0.318000,-0.837000,35.298000,-6.168000,-0.153000,28.72
0.219101,0.428000,-0.257000,-0.889000,47.832000,-15.740000,-3.374000,28.81
0.219541,0.397000,-0.262000,-0.853000,33.420000,-18.305000,-0.595000,28.77
0.219969,0.372000,-0.235000,-0.886000,29.038000,-19.084000,0.595000,28.77
0.220405,0.353000,-0.224000,-0.875000,22.168000,-19.115000,-1.771000,28.72
0.220836,0.342000,-0.201000,-0.895000,14.305000,-16.718000,-1.328000,28.72
0.221346,0.312000,-0.166000,-0.910000,10.031000,-15.145000,-0.641000,28.67
0.221772,0.296000,-0.147000,-0.916000,1.954000,-4.718000,0.580000,28.81
0.222181,0.291000,-0.144000,-0.933000,-1.588000,4.000000,0.458000,28.62
0.222600,0.303000,-0.170000,-0.941000,-1.084000,9.282000,0.031000,28.67
0.223029,0.318000,-0.178000,-0.922000,-0.031000,12.458000,-0.031000,28.67
0.223450,0.331000,-0.210000,-0.910000,0.626000,14.092000,0.031000,28.72
0.223861,0.345000,-0.210000,-0.907000,3.298000,10.122000,0.733000,28.72
0.224564,0.343000,-0.235000,-0.900000,5.618000,6.931000,0.916000,28.67
0.225061,0.349000,-0.247000,-0.885000,7.634000,2.672000,0.229000,28.67
0.225512,0.366000,-0.261000,-0.880000,6.076000,2.489000,-0.260000,28.62
0.226007,0.370000,-0.263000,-0.883000,6.473000,0.397000,-0.641000,28.72
0.226495,0.369000,-0.257000,-0.892000,6.397000,-0.992000,-1.313000,28.67
0.226951,0.364000,-0.239000,-0.897000,5.267000,-2.061000,-1.313000,28.72
0.227409,0.355000,-0.239000,-0.895000,5.405000,-4.733000,-1.359000,28.81
0.227855,0.338000,-0.245000,-0.897000,3.985000,-4.779000,-1.511000,28.72
0.228297,0.338000,-0.236000,-0.910000,1.878000,-2.534000,-1.298000,28.58
0.228727,0.320000,-0.228000,-0.891000,2.321000,-2.351000,-2.107000,28.72
0.229157,0.334000,-0.232000,-0.906000,1.099000,-0.260000,-2.641000,28.72
0.229579,0.343000,-0.217000,-0.921000,2.229000,1.099000,-2.626000,28.58
0.230007,0.342000,-0.213000,-0.912000,6.198000,-0.321000,-2.931000,28.77
0.230425,0.331000,-0.214000,-0.901000,5.176000,2.534000,-2.794000,28.62
0.230847,0.335000,-0.228000,-0.910000,6.382000,2.687000,-3.420000,28.72
0.231280,0.317000,-0.231000,-0.914000,10.687000,-2.366000,-3.939000,28.77
0.231698,0.333000,-0.234000,-0.893000,5.252000,0.611000,-3.771000,28.72
0.232121,0.330000,-0.241000,-0.880000,2.611000,-0.641000,-3.389000,28.62
0.232546,0.337000,-0.243000,-0.893000,-1.695000,0.565000,-3.573000,28.72
0.232965,0.355000,-0.226000,-0.879000,-2.092000,1.252000,-3.832000,28.77
0.233393,0.329000,-0.234000,-0.837000,-12.107000,8.458000,-3.191000,28.77
0.233823,0.334000,-0.253000,-0.922000,-0.015000,-5.221000,-4.366000,28.62
0.234367,0.331000,-0.253000,-0.860000,-9.893000,3.634000,-5.557000,28.72
0.234926,0.341000,-0.245000,-0.889000,-18.382000,7.359000,-5.863000,28.67
0.235380,0.341000,-0.228000,-0.876000,-25.435000,13.405000,-5.985000,28.77
0.235834,0.342000,-0.222000,-0.918000,-25.908000,12.916000,-5.878000,28.81
0.236322,0.336000,-0.219000,-0.928000,-19.756000,8.626000,-5.786000,28.72
0.236796,0.348000,-0.209000,-0.923000,-18.489000,10.763000,-5.145000,28.77
0.237220,0.341000,-0.207000,-0.926000,-8.687000,3.206000,-4.916000,28.72
0.237709,0.352000,-0.202000,-0.930000,-3.679000,0.962000,-3.969000,28.62
0.238227,0.346000,-0.202000,-0.916000,-0.275000,0.229000,-3.573000,28.77
0.238680,0.346000,-0.208000,-0.898000,-0.183000,1.435000,-3.557000,28.86
0.239189,0.348000,-0.206000,-0.904000,-2.489000,3.725000,-3.160000,28.72
0.239644,0.351000,-0.207000,-0.909000,-3.985000,5.267000,-2.534000,28.72
0.240139,0.356000,-0.207000,-0.910000,-4.580000,5.557000,-2.183000,28.67
0.240669,0.350000,-0.206000,-0.919000,-4.015000,4.473000,-1.878000,28.67
0.241144,0.346000,-0.214000,-0.901000,-2.183000,2.397000,-1.740000,28.81
0.241578,0.346000,-0.218000,-0.906000,-1.771000,1.130000,-1.313000,28.72
0.242008,0.345000,-0.216000,-0.912000,-1.466000,0.748000,-1.557000,28.77
0.242442,0.348000,-0.212000,-0.903000,-1.267000,0.351000,-1.634000,28.67
0.242861,0.357000,-0.211000,-0.915000,-1.924000,1.252000,-1.496000,28.72
0.243283,0.335000,-0.206000,-0.915000,-1.191000,0.427000,-1.618000,28.72
0.243710,0.338000,-0.207000,-0.911000,-1.832000,0.519000,-1.618000,28.67
0.244158,0.342000,-0.217000,-0.893000,-4.260000,3.038000,-1.435000,28.81
0.244578,0.341000,-0.211000,-0.907000,-5.359000,4.260000,-1.450000,28.72
0.244993,0.345000,-0.209000,-0.922000,-5.832000,5.420000,-1.374000,28.67
0.245411,0.346000,-0.204000,-0.911000,-4.794000,4.977000,-0.962000,28.67
0.245831,0.343000,-0.206000,-0.908000,-2.718000,3.023000,-1.176000,28.72
0.246251,0.347000,-0.211000,-0.906000,-2.031000,1.847000,-0.855000,28.62
0.246664,0.348000,-0.202000,-0.914000,-1.511000,1.679000,-1.053000,28.67
0.247077,0.349000,-0.207000,-0.911000,-0.412000,1.176000,-0.427000,28.67
0.247489,0.341000,-0.208000,-0.915000,-0.183000,0.702000,-0.565000,28.72
0.247996,0.348000,-0.208000,-0.908000,-1.282000,1.817000,-0.321000,28.81
0.248455,0.350000,-0.209000,-0.916000,-2.336000,2.656000,-0.641000,28.67
0.248898,0.339000,-0.204000,-0.902000,-3.389000,3.756000,-0.718000,28.62
0.249555,0.341000,-0.213000,-0.907000,-3.847000,3.954000,-0.824000,28.72
0.250044,0.345000,-0.210000,-0.905000,-3.847000,3.588000,-0.611000,28.72
0.250491,0.345000,-0.203000,-0.908000,-3.771000,2.962000,-0.611000,28.67
0.250930,0.339000,-0.211000,-0.901000,-2.580000,2.977000,-0.504000,28.62
0.251429,0.336000,-0.210000,-0.903000,-1.466000,1.954000,-0.458000,28.81
0.251905,0.344000,-0.214000,-0.910000,-0.748000,1.786000,-0.580000,28.67
0.252367,0.338000,-0.204000,-0.907000,-0.305000,1.053000,-0.458000,28.67
0.252816,0.335000,-0.201000,-0.910000,-0.580000,0.962000,-0.687000,28.72
0.253254,0.333000,-0.212000,-0.901000,-1.374000,1.542000,-0.809000,28.72
0.253685,0.342000,-0.208000,-0.914000,-3.191000,3.038000,-1.008000,28.67
0.254125,0.343000,-0.210000,-0.910000,-4.336000,4.290000,-0.916000,28.72
0.254567,0.342000,-0.206000,-0.902000,-4.595000,4.321000,-1.023000,28.72
0.255008,0.341000,-0.203000,-0.912000,-4.641000,4.824000,-0.794000,28.72
0.255482,0.337000,-0.208000,-0.903000,-4.244000,3.832000,-0.931000,28.77
0.256008,0.349000,-0.208000,-0.906000,-4.031000,3.786000,-0.779000,28.62
0.256506,0.341000,-0.213000,-0.911000,-3.374000,3.740000,-1.130000,28.72
0.256945,0.335000,-0.210000,-0.908000,-2.626000,2.931000,-0.962000,28.77
0.257409,0.345000,-0.209000,-0.911000,-2.412000,2.947000,-0.931000,28.67
0.257845,0.344000,-0.206000,-0.907000,-2.244000,2.443000,-0.611000,28.62
0.258265,0.338000,-0.206000,-0.917000,-2.443000,2.580000,-0.794000,28.62
0.258681,0.349000,-0.208000,-0.916000,-1.450000,1.237000,-0.336000,28.67
0.259146,0.342000,-0.195000,-0.919000,-1.053000,0.962000,-0.153000,28.72
0.259689,0.339000,-0.209000,-0.901000,-0.870000,0.641000,-0.168000,28.72
0.260138,0.341000,-0.209000,-0.900000,-1.099000,0.733000,-0.534000,28.67
0.260580,0.342000,-0.204000,-0.902000,-2.137000,1.160000,-0.565000,28.77
0.261089,0.347000,-0.208000,-0.907000,-3.939000,2.305000,-0.763000,28.62
0.261571,0.344000,-0.204000,-0.911000,-5.359000,3.649000,-0.611000,28.81
0.262024,0.343000,-0.204000,-0.903000,-4.443000,2.840000,-0.595000,28.77
0.262467,0.338000,-0.206000,-0.914000,-3.817000,2.748000,-0.550000,28.77
0.262905,0.339000,-0.202000,-0.916000,-1.771000,0.931000,-0.641000,28.62
0.263337,0.346000,-0.206000,-0.912000,-0.824000,0.748000,-0.336000,28.62
0.263773,0.339000,-0.198000,-0.905000,0.824000,-1.038000,0.000000,28.67
0.264205,0.338000,-0.205000,-0.912000,1.450000,-1.389000,-0.397000,28.62
0.264642,0.341000,-0.199000,-0.902000,1.496000,-0.977000,-0.061000,28.62
0.265072,0.334000,-0.203000,-0.913000,0.489000,-0.519000,-0.305000,28.67
0.265575,0.329000,-0.208000,-0.900000,-0.153000,-0.473000,-0.550000,28.77
0.266074,0.334000,-0.214000,-0.897000,-0.122000,-0.046000,-0.504000,28.72
0.266508,0.337000,-0.209000,-0.916000,-1.328000,0.748000,-0.809000,28.62
0.266929,0.344000,-0.205000,-0.909000,-2.840000,1.817000,-1.160000,28.77
0.267348,0.334000,-0.204000,-0.915000,-4.427000,2.947000,-1.374000,28.67
0.267770,0.339000,-0.198000,-0.898000,-5.634000,4.015000,-1.359000,28.72
0.268187,0.335000,-0.201000,-0.908000,-5.740000,4.168000,-1.313000,28.67
0.268605,0.335000,-0.200000,-0.917000,-5.924000,4.305000,-1.176000,28.67
0.269014,0.335000,-0.208000,-0.922000,-5.328000,3.740000,-1.313000,28.62
0.269576,0.331000,-0.208000,-0.906000,-4.458000,2.916000,-1.298000,28.72
0.270014,0.334000,-0.208000,-0.908000,-3.710000,2.702000,-1.405000,28.67
0.270433,0.336000,-0.206000,-0.913000,-3.496000,2.366000,-1.573000,28.77
0.270846,0.334000,-0.209000,-0.891000,-3.099000,2.076000,-1.588000,28.62
0.271276,0.339000,-0.195000,-0.914000,-3.557000,2.290000,-1.695000,28.72
0.271690,0.339000,-0.196000,-0.912000,-3.542000,2.198000,-1.359000,28.67
0.272104,0.341000,-0.196000,-0.910000,-3.374000,2.031000,-1.359000,28.67
0.272519,0.340000,-0.195000,-0.913000,-3.710000,2.168000,-1.084000,28.72
0.272940,0.348000,-0.190000,-0.913000,-3.893000,2.427000,-1.023000,28.67
0.273487,0.334000,-0.187000,-0.908000,-4.076000,2.656000,-0.809000,28.77
0.274118,0.339000,-0.195000,-0.919000,-5.618000,4.779000,6.275000,28.72
0.274574,0.457000,-0.197000,-0.815000,-63.908000,41.847000,176.656000,28.72
0.275009,0.550000,-0.347000,-0.867000,-85.603000,33.817000,255.847000,28.67
0.275443,0.233000,-0.179000,-1.076000,-86.718000,-54.580000,315.389000,28.58
0.275875,0.104000,-0.012000,-0.988000,-28.718000,-45.420000,250.000000,28.62
0.276316,0.143000,-0.309000,-0.995000,15.618000,-23.679000,168.275000,28.77
0.276744,0.096000,-0.152000,-0.956000,20.366000,-32.916000,54.183000,28.67
0.277185,0.279000,-0.250000,-0.833000,-32.794000,-10.458000,10.550000,28.81
0.277612,0.282000,-0.253000,-0.997000,-17.557000,-16.733000,15.130000,28.72
0.278040,0.375000,-0.288000,-1.039000,21.466000,-55.237000,46.473000,28.67
0.278484,-0.270000,-0.057000,-0.687000,-94.779000,-68.595000,-36.244000,28.67
0.278910,0.285000,-0.221000,-0.858000,-78.763000,18.870000,-41.771000,28.81
0.279437,0.316000,-0.238000,-0.904000,-87.313000,39.634000,11.359000,28.72
0.280045,0.278000,-0.175000,-0.872000,-96.519000,57.344000,18.870000,28.67
0.280522,0.260000,-0.166000,-0.788000,-131.420000,126.244000,21.389000,28.62
0.281043,0.281000,-0.144000,-0.965000,-145.573000,190.198000,14.290000,28.72
0.281524,0.344000,-0.118000,-1.100000,-107.924000,156.718000,11.573000,28.67
0.282052,0.399000,-0.102000,-1.095000,-41.756000,53.359000,19.344000,28.72
0.282511,0.379000,-0.081000,-0.995000,-2.977000,-11.740000,31.603000,28.72
0.282934,0.357000,-0.132000,-0.924000,-6.076000,-19.573000,60.550000,28.81
0.283356,0.328000,-0.080000,-0.925000,-5.282000,-36.260000,49.420000,28.67
0.283781,0.302000,-0.115000,-0.942000,3.450000,-48.336000,48.214000,28.62
0.284203,0.331000,-0.090000,-0.947000,4.076000,-26.443000,54.244000,28.72
0.284629,0.469000,-0.138000,-0.985000,12.840000,6.153000,92.061000,28.67
0.285050,0.156000,-0.271000,-0.871000,26.992000,-53.435000,61.924000,28.67
0.285475,0.219000,-0.133000,-0.942000,-2.656000,-7.679000,81.969000,28.72
0.285901,0.075000,-0.234000,-0.827000,2.611000,-38.183000,41.557000,28.72
0.286325,0.230000,-0.170000,-0.893000,-1.328000,-5.634000,23.206000,28.67
0.286740,0.246000,-0.141000,-0.950000,-0.809000,16.641000,10.504000,28.62
0.287168,0.282000,-0.126000,-0.939000,10.809000,25.420000,-12.427000,28.72
0.287588,0.283000,-0.152000,-0.916000,0.183000,39.756000,-15.939000,28.67
0.288012,0.308000,-0.131000,-0.941000,-14.046000,28.870000,-20.046000,28.77
0.288438,0.318000,-0.081000,-0.926000,-9.679000,33.771000,-31.511000,28.72
0.288864,0.281000,-0.047000,-0.923000,-12.443000,63.450000,-56.840000,28.53
0.289374,0.293000,-0.097000,-0.937000,6.137000,84.641000,-67.939000,28.58
0.289956,0.372000,-0.176000,-0.900000,5.130000,96.427000,-61.084000,28.72
0.290469,0.426000,-0.205000,-0.896000,-17.985000,81.023000,-19.664000,28.62
0.290910,0.462000,-0.169000,-0.949000,-31.038000,27.038000,10.901000,28.67
0.291345,0.392000,-0.127000,-0.953000,-32.748000,-26.000000,37.069000,28.77
0.291772,0.361000,-0.116000,-0.954000,-21.939000,-37.023000,41.573000,28.72
0.292193,0.360000,-0.005000,-1.041000,21.740000,-68.595000,29.374000,28.67
0.292617,0.296000,-0.155000,-0.838000,37.969000,-46.015000,19.893000,28.77
0.293034,0.258000,-0.078000,-0.829000,41.985000,24.229000,-15.496000,28.72
0.293461,0.320000,-0.084000,-0.851000,19.954000,72.580000,-29.221000,28.62
0.293875,0.431000,-0.259000,-0.786000,-4.809000,81.344000,7.313000,28.86
0.294315,0.476000,-0.180000,-0.914000,-25.405000,39.252000,30.336000,28.72
0.294734,0.440000,-0.150000,-0.885000,-35.908000,-6.519000,61.328000,28.72
0.295172,0.461000,-0.090000,-0.891000,-48.305000,12.046000,101.145000,28.67
0.295600,0.441000,-0.166000,-0.854000,-51.893000,14.046000,127.053000,28.58
0.296040,0.360000,-0.132000,-0.939000,-46.870000,-9.695000,92.824000,28.72
0.296462,0.327000,-0.149000,-0.884000,-39.588000,0.351000,62.824000,28.72
0.296886,0.406000,-0.111000,-1.000000,-22.580000,-21.405000,46.580000,28.67
0.297315,0.361000,-0.126000,-0.945000,-5.527000,-25.069000,35.038000,28.67
0.297739,0.347000,-0.107000,-0.921000,0.092000,-11.863000,34.977000,28.72
0.298174,0.357000,-0.151000,-0.941000,7.084000,-11.466000,24.107000,28.77
0.298588,0.292000,-0.112000,-0.920000,9.130000,5.008000,10.687000,28.77
0.299019,0.276000,-0.155000,-0.883000,13.053000,28.214000,1.695000,28.72
0.299602,0.301000,-0.200000,-0.900000,6.916000,29.710000,-3.282000,28.62
0.300203,0.346000,-0.209000,-0.856000,-2.076000,19.420000,2.550000,28.67
0.300649,0.376000,-0.164000,-0.934000,-9.206000,10.901000,5.771000,28.77
0.301188,0.390000,-0.176000,-0.954000,-8.122000,-20.992000,13.802000,28.72
0.301649,0.383000,-0.194000,-0.861000,-10.244000,-22.901000,23.756000,28.62
0.302079,0.369000,-0.135000,-0.895000,-12.733000,-23.863000,24.183000,28.67
0.302512,0.384000,-0.152000,-0.891000,-10.321000,-37.099000,31.725000,28.81
0.302937,0.323000,-0.133000,-0.834000,-12.351000,-9.511000,37.282000,28.62
0.303370,0.316000,-0.106000,-0.952000,-11.130000,3.023000,33.756000,28.67
0.303792,0.420000,-0.109000,-1.001000,-3.710000,-7.023000,40.641000,28.67
0.304220,0.652000,-0.156000,-1.029000,6.183000,24.947000,72.321000,28.72
0.304648,0.192000,-0.148000,-0.906000,4.000000,-55.496000,39.985000,28.67
0.305077,0.276000,-0.148000,-0.925000,5.863000,-29.069000,32.031000,28.67
0.305492,0.344000,-0.159000,-0.943000,7.863000,7.435000,42.809000,28.62
0.305911,0.012000,-0.172000,-0.870000,3.954000,-7.298000,27.817000,28.62
0.306356,0.184000,-0.147000,-0.908000,4.137000,3.298000,3.038000,28.77
0.306806,0.240000,-0.159000,-0.938000,1.542000,16.733000,-6.061000,28.72
0.307240,0.282000,-0.191000,-0.906000,-2.229000,26.550000,-8.947000,28.72
0.307677,0.295000,-0.196000,-0.932000,-10.198000,32.382000,-5.084000,28.77
0.308105,0.318000,-0.191000,-0.957000,-8.794000,20.947000,-5.206000,28.77
0.308531,0.309000,-0.177000,-0.938000,-17.053000,14.855000,2.275000,28.72
0.308960,0.325000,-0.182000,-0.970000,-22.885000,6.763000,9.420000,28.72
0.309491,0.317000,-0.140000,-0.916000,-19.420000,13.573000,9.649000,28.58
0.310149,0.321000,-0.221000,-0.965000,-14.748000,22.534000,7.420000,28.72
0.310610,0.040000,0.098000,-0.845000,23.069000,59.145000,-16.992000,28.62
0.311128,0.317000,-0.182000,-0.994000,30.214000,-35.573000,-4.153000,28.67
0.311609,0.285000,-0.181000,-0.833000,17.725000,18.702000,-8.122000,28.67
0.312066,0.339000,-0.181000,-0.902000,12.382000,17.969000,-8.183000,28.62
0.312538,0.331000,-0.180000,-0.859000,9.557000,31.863000,-14.366000,28.72
0.313028,0.510000,-0.007000,-0.700000,38.290000,45.374000,-25.389000,28.77
0.313492,0.357000,-0.163000,-0.814000,1.527000,67.435000,-11.313000,28.67
0.313948,0.434000,-0.175000,-0.896000,-6.733000,44.534000,-1.893000,28.72
0.314391,0.366000,-0.198000,-0.903000,-5.435000,31.328000,1.069000,28.62
0.314854,0.358000,-0.171000,-0.912000,-3.603000,26.550000,-0.443000,28.77
0.315345,0.366000,-0.197000,-0.909000,-3.695000,20.794000,0.000000,28.72
0.315861,0.384000,-0.185000,-0.910000,-2.260000,16.214000,-0.992000,28.62
0.316315,0.386000,-0.154000,-0.905000,-2.550000,10.366000,-1.527000,28.67
0.316736,0.426000,-0.209000,-0.961000,-10.855000,4.718000,-0.458000,28.67
0.317160,0.409000,-0.195000,-0.874000,-9.450000,-3.664000,1.267000,28.62
0.317590,0.395000,-0.156000,-0.918000,-11.878000,-13.130000,2.473000,28.62
0.318014,0.362000,-0.188000,-0.921000,-9.679000,-3.954000,1.969000,28.67
0.318436,0.365000,-0.178000,-0.917000,-6.229000,2.534000,1.374000,28.62
0.318862,0.381000,-0.179000,-0.913000,-3.924000,2.794000,1.069000,28.72
0.319580,0.377000,-0.171000,-0.917000,-0.031000,3.557000,0.366000,28.67
0.320073,0.373000,-0.164000,-0.914000,2.672000,3.023000,-0.076000,28.72
0.320507,0.382000,-0.163000,-0.944000,5.053000,-4.718000,0.214000,28.62
0.320954,0.370000,-0.179000,-0.898000,6.229000,-9.282000,1.206000,28.72
0.321461,0.377000,-0.163000,-0.921000,0.473000,-22.672000,4.366000,28.67
0.321933,0.369000,-0.167000,-0.899000,0.550000,-21.573000,6.489000,28.62
0.322381,0.358000,-0.195000,-0.883000,1.542000,-4.870000,6.153000,28.62
0.322820,0.351000,-0.141000,-0.906000,1.359000,8.382000,4.916000,28.67
0.323286,0.361000,-0.172000,-0.879000,4.321000,21.603000,2.061000,28.67
0.323784,0.366000,-0.190000,-0.876000,4.168000,26.122000,-0.870000,28.62
0.324207,0.385000,-0.175000,-0.892000,2.916000,25.710000,-1.695000,28.81
0.324629,0.381000,-0.177000,-0.877000,0.427000,23.634000,-1.679000,28.77
0.325051,0.368000,-0.171000,-0.893000,0.015000,17.893000,-2.901000,28.62
0.325478,0.397000,-0.181000,-0.886000,-1.695000,13.908000,-2.702000,28.72
0.325907,0.379000,-0.175000,-0.881000,-3.557000,13.847000,-2.061000,28.77
0.326339,0.372000,-0.159000,-0.882000,-5.221000,15.893000,-3.038000,28.67
0.326769,0.368000,-0.166000,-0.879000,-5.832000,23.573000,-4.595000,28.72
0.327197,0.384000,-0.159000,-0.909000,-4.122000,27.725000,-6.046000,28.72
0.327620,0.387000,-0.162000,-0.908000,-0.565000,23.160000,-6.779000,28.77
0.328036,0.396000,-0.146000,-0.919000,4.489000,13.695000,-8.412000,28.67
0.328466,0.400000,-0.168000,-0.883000,2.366000,19.069000,-7.466000,28.72
0.328892,0.395000,-0.169000,-0.880000,-0.779000,21.374000,-8.412000,28.67
0.329319,0.387000,-0.164000,-0.871000,-2.962000,31.145000,-10.443000,28.67
0.329746,0.400000,-0.183000,-0.886000,-8.260000,38.229000,-9.603000,28.72
0.330189,0.424000,-0.191000,-0.854000,-11.695000,43.496000,-8.275000,28.81
0.330626,0.430000,-0.182000,-0.865000,-18.931000,38.366000,-6.687000,28.67
0.331063,0.453000,-0.212000,-0.882000,-10.183000,20.122000,-7.008000,28.67
0.331644,0.422000,-0.167000,-0.872000,-10.733000,13.405000,-7.649000,28.62
0.332302,0.435000,-0.174000,-0.887000,-7.130000,15.160000,-8.275000,28.58
0.332743,0.443000,-0.160000,-0.886000,-4.244000,7.802000,-7.832000,28.77
0.333167,0.443000,-0.164000,-0.901000,-4.153000,-8.168000,-5.328000,28.72
0.333597,0.425000,-0.158000,-0.869000,-6.000000,-11.145000,-3.863000,28.72
0.334021,0.419000,-0.160000,-0.890000,-5.664000,-9.466000,-2.992000,28.67
0.334455,0.409000,-0.159000,-0.895000,-2.779000,-6.687000,-3.664000,28.67
0.334893,0.408000,-0.166000,-0.871000,-1.267000,1.267000,-4.718000,28.72
0.335319,0.423000,-0.158000,-0.868000,-3.069000,9.573000,-4.855000,28.77
0.335740,0.437000,-0.152000,-0.894000,-3.130000,3.817000,-3.282000,28.67
0.336170,0.433000,-0.162000,-0.885000,-3.176000,10.183000,-2.153000,28.72
0.336593,0.426000,-0.148000,-0.888000,0.000000,23.740000,-2.076000,28.62
0.337018,0.421000,-0.135000,-0.848000,-4.122000,34.855000,-2.351000,28.67
0.337444,0.446000,-0.143000,-0.871000,-7.115000,35.786000,-2.748000,28.62
0.337873,0.471000,-0.159000,-0.873000,-6.244000,33.374000,-0.702000,28.72
0.338298,0.473000,-0.133000,-0.884000,-4.962000,16.611000,-0.183000,28.72
0.338718,0.463000,-0.139000,-0.891000,-3.588000,1.802000,-0.107000,28.67
0.339140,0.450000,-0.147000,-0.875000,-2.702000,1.237000,-0.153000,28.62
0.339559,0.445000,-0.137000,-0.884000,0.260000,0.794000,-0.718000,28.72
0.339979,0.446000,-0.156000,-0.887000,3.740000,0.779000,-1.466000,28.67
0.340434,0.442000,-0.148000,-0.889000,6.412000,-1.985000,-1.099000,28.67
0.340879,0.442000,-0.174000,-0.887000,10.779000,-5.008000,-1.328000,28.72
0.341330,0.440000,-0.161000,-0.890000,12.427000,-10.580000,-1.939000,28.72
0.341761,0.626000,-0.438000,-1.209000,22.855000,4.840000,-2.977000,28.77
0.342200,0.411000,-0.146000,-0.882000,12.611000,-15.939000,-3.878000,28.62
0.342625,0.444000,-0.168000,-0.851000,7.786000,-4.580000,-5.099000,28.72
0.343065,0.453000,-0.162000,-0.846000,3.725000,-2.412000,-3.389000,28.67
0.343496,0.448000,-0.156000,-0.885000,1.985000,-8.092000,-1.649000,28.77
0.343926,0.434000,-0.174000,-0.867000,1.481000,-9.023000,-0.992000,28.62
0.344380,0.435000,-0.169000,-0.876000,0.809000,-9.450000,-0.733000,28.72
0.344813,0.422000,-0.135000,-0.858000,-2.595000,-3.481000,-0.076000,28.67
0.345239,0.425000,-0.148000,-0.862000,-4.916000,0.595000,-0.305000,28.67
0.345664,0.421000,-0.156000,-0.859000,-7.099000,7.725000,-0.550000,28.62
0.346095,0.432000,-0.162000,-0.870000,-10.336000,12.870000,-0.687000,28.62
0.346512,0.457000,-0.171000,-0.889000,-6.855000,10.641000,-0.901000,28.67
0.346932,0.387000,-0.160000,-0.850000,-4.702000,17.221000,-2.611000,28.72
0.347360,0.443000,-0.148000,-0.953000,-21.206000,14.366000,-5.679000,28.72
0.347774,0.502000,-0.238000,-0.878000,1.252000,-7.908000,-1.252000,28.72
0.348193,0.413000,-0.123000,-0.893000,0.840000,-18.260000,-0.672000,28.67
0.348610,0.436000,-0.195000,-0.884000,1.359000,-11.863000,-0.336000,28.81
0.349035,0.440000,-0.166000,-0.896000,5.115000,-16.443000,0.626000,28.62
0.349458,0.422000,-0.157000,-0.864000,3.206000,-12.183000,0.748000,28.77
0.349869,0.407000,-0.156000,-0.858000,-0.015000,-1.756000,0.489000,28.67
0.350288,0.420000,-0.143000,-0.867000,-2.382000,2.824000,-0.947000,28.72
0.350712,0.419000,-0.158000,-0.860000,-6.275000,12.061000,-1.542000,28.72
0.351137,0.426000,-0.158000,-0.857000,-9.985000,20.397000,-2.595000,28.77
0.351781,0.426000,-0.156000,-0.878000,-11.756000,19.481000,-2.779000,28.72
0.352410,0.462000,-0.165000,-0.921000,-2.168000,4.046000,-2.107000,28.72
0.352884,0.432000,-0.163000,-0.897000,5.511000,-3.084000,-1.832000,28.67
0.353328,0.417000,-0.151000,-0.898000,5.908000,-3.893000,-2.214000,28.67
0.353769,0.437000,-0.164000,-0.893000,6.260000,-14.565000,-0.962000,28.72
0.354206,0.433000,-0.174000,-0.859000,2.595000,-16.519000,0.672000,28.62
0.354652,0.427000,-0.152000,-0.875000,-1.908000,-10.015000,1.023000,28.77
0.355096,0.411000,-0.173000,-0.873000,-3.496000,-5.710000,0.855000,28.77
0.355525,0.406000,-0.159000,-0.885000,-5.771000,0.580000,0.076000,28.72
0.356007,0.416000,-0.167000,-0.891000,-5.603000,8.168000,-0.504000,28.62
0.356452,0.428000,-0.152000,-0.883000,-3.817000,7.160000,-0.382000,28.77
0.356872,0.411000,-0.151000,-0.887000,-3.679000,4.748000,-0.565000,28.72
0.357312,0.443000,-0.157000,-0.902000,2.183000,-9.084000,-0.229000,28.72
0.357727,0.426000,-0.157000,-0.889000,8.763000,-19.206000,0.809000,28.67
0.358147,0.418000,-0.156000,-0.898000,12.366000,-26.779000,0.718000,28.67
0.358575,0.404000,-0.162000,-0.878000,14.534000,-31.863000,1.817000,28.62
0.359006,0.388000,-0.174000,-0.850000,11.832000,-33.374000,4.122000,28.72
0.359418,0.378000,-0.176000,-0.857000,5.130000,-8.687000,2.458000,28.77
0.359832,0.379000,-0.155000,-0.868000,0.855000,-1.084000,0.840000,28.72
0.360253,0.388000,-0.164000,-0.862000,-4.244000,1.939000,1.084000,28.62
0.360673,0.388000,-0.157000,-0.886000,-6.000000,6.000000,1.756000,28.67
0.361099,0.393000,-0.154000,-0.895000,-5.252000,7.481000,4.076000,28.77
0.361617,0.402000,-0.139000,-0.922000,2.504000,0.550000,5.725000,28.62
0.362200,0.400000,-0.184000,-0.917000,11.298000,-7.252000,7.588000,28.72
0.362661,0.380000,-0.170000,-0.905000,14.183000,-15.924000,8.382000,28.77
0.363136,0.388000,-0.196000,-0.901000,15.313000,-30.595000,13.237000,28.77
0.363587,0.369000,-0.204000,-0.863000,16.977000,-27.985000,12.626000,28.72
0.364031,0.383000,-0.183000,-0.866000,13.176000,-19.725000,10.290000,28.67
0.364477,0.389000,-0.214000,-0.868000,10.000000,-9.069000,6.092000,28.72
0.364913,0.375000,-0.227000,-0.880000,4.473000,3.603000,-0.031000,28.72
0.365417,0.364000,-0.186000,-0.870000,-3.160000,15.328000,-5.405000,28.62
0.365864,0.392000,-0.199000,-0.884000,-9.313000,37.924000,-7.069000,28.67
0.366354,0.420000,-0.193000,-0.931000,-5.023000,17.817000,-4.733000,28.77
0.366920,0.389000,-0.182000,-0.898000,1.313000,7.298000,-3.847000,28.72
0.367386,0.377000,-0.180000,-0.881000,-1.069000,16.351000,-4.397000,28.72
0.367840,0.391000,-0.181000,-0.890000,-3.282000,18.061000,-4.779000,28.67
0.368276,0.396000,-0.195000,-0.892000,-4.947000,20.321000,-4.580000,28.62
0.368712,0.385000,-0.179000,-0.882000,-7.038000,22.107000,-4.763000,28.62
0.369148,0.398000,-0.194000,-0.893000,-9.450000,26.611000,-5.084000,28.67
0.369630,0.419000,-0.186000,-0.884000,-10.550000,27.939000,-4.779000,28.72
0.370077,0.417000,-0.188000,-0.903000,-10.489000,23.939000,-3.985000,28.72
0.370513,0.423000,-0.188000,-0.902000,-6.641000,12.321000,-2.885000,28.72
0.371011,0.421000,-0.187000,-0.887000,-6.076000,7.664000,-2.137000,28.67
0.371482,0.422000,-0.184000,-0.891000,-3.786000,3.863000,-1.893000,28.72
0.371940,0.413000,-0.178000,-0.869000,-3.817000,4.427000,-1.985000,28.62
0.372387,0.412000,-0.181000,-0.874000,-5.038000,6.595000,-2.366000,28.77
0.372832,0.402000,-0.171000,-0.878000,-7.802000,11.115000,-2.687000,28.77
0.373252,0.410000,-0.187000,-0.887000,-8.000000,12.275000,-3.038000,28.62
0.373686,0.407000,-0.173000,-0.884000,-6.580000,11.634000,-3.053000,28.62
0.374113,0.416000,-0.185000,-0.904000,-2.397000,5.115000,-2.107000,28.77
0.374528,0.414000,-0.159000,-0.892000,1.969000,-0.656000,-0.931000,28.72
0.374946,0.420000,-0.170000,-0.893000,2.977000,0.092000,-0.229000,28.72
0.375361,0.411000,-0.180000,-0.878000,2.382000,0.672000,0.015000,28.58
0.375781,0.411000,-0.184000,-0.868000,-0.687000,1.664000,0.137000,28.77
0.376210,0.403000,-0.187000,-0.859000,-4.947000,9.252000,-1.374000,28.72
0.376623,0.432000,-0.195000,-0.869000,-9.435000,13.771000,-1.603000,28.62
0.377057,0.438000,-0.181000,-0.882000,-9.847000,11.710000,-1.176000,28.58
0.377492,0.436000,-0.183000,-0.876000,-9.221000,6.504000,-0.443000,28.67
0.377920,0.424000,-0.184000,-0.872000,-9.511000,6.672000,-0.733000,28.72
0.378336,0.411000,-0.181000,-0.880000,-9.023000,3.878000,-1.038000,28.67
0.378761,0.403000,-0.171000,-0.892000,-6.794000,1.786000,-2.260000,28.67
0.379184,0.393000,-0.184000,-0.880000,-2.397000,-0.198000,-3.634000,28.72
0.379607,0.429000,-0.173000,-0.880000,-1.237000,0.198000,-3.740000,28.62
0.380025,0.425000,-0.173000,-0.881000,0.656000,-6.183000,-2.489000,28.77
0.380443,0.422000,-0.177000,-0.866000,-0.641000,-3.221000,-2.061000,28.67
0.380872,0.425000,-0.175000,-0.876000,-2.885000,-4.412000,-0.626000,28.62
0.381302,0.420000,-0.170000,-0.869000,-6.672000,-2.107000,-0.122000,28.72
0.381721,0.420000,-0.171000,-0.890000,-9.237000,-0.244000,0.305000,28.67
0.382263,0.415000,-0.175000,-0.884000,-9.679000,-0.702000,0.626000,28.77
0.382889,0.414000,-0.181000,-0.888000,-7.542000,0.244000,0.229000,28.62
0.383337,0.406000,-0.168000,-0.878000,-4.733000,3.985000,-1.053000,28.58
0.383779,0.417000,-0.159000,-0.886000,-1.420000,1.359000,-1.725000,28.67
0.384214,0.415000,-0.164000,-0.881000,1.252000,-0.321000,-2.000000,28.72
0.384656,0.408000,-0.165000,-0.858000,0.992000,-1.496000,-2.107000,28.72
0.385095,0.396000,-0.176000,-0.864000,-3.893000,3.511000,-3.481000,28.67
0.385543,0.420000,-0.162000,-0.872000,-7.298000,-1.664000,-2.763000,28.67
0.386015,0.411000,-0.151000,-0.877000,-9.237000,-2.840000,-2.748000,28.62
0.386466,0.430000,-0.159000,-0.895000,-8.718000,-12.382000,-0.855000,28.72
0.386892,0.415000,-0.157000,-0.876000,-9.313000,-17.740000,1.145000,28.67
0.387329,0.404000,-0.156000,-0.886000,-11.817000,-17.954000,2.672000,28.72
0.387751,0.415000,-0.158000,-0.904000,-14.626000,-23.649000,5.450000,28.81
0.388168,0.396000,-0.163000,-0.895000,-13.023000,-27.511000,7.191000,28.67
0.388594,0.373000,-0.156000,-0.907000,-12.489000,-13.573000,4.855000,28.67
0.389151,0.401000,-0.138000,-0.912000,-8.000000,-31.527000,8.214000,28.72
0.389667,0.379000,-0.164000,-0.887000,-4.595000,-28.046000,6.183000,28.72
0.390116,0.372000,-0.206000,-0.885000,2.443000,-10.779000,4.137000,28.67
0.390617,0.387000,-0.176000,-0.874000,6.611000,12.779000,3.817000,28.67
0.391068,0.374000,-0.141000,-0.879000,-6.992000,18.275000,6.672000,28.62
0.391481,0.403000,-0.189000,-0.933000,-9.878000,7.878000,6.275000,28.77
0.391906,0.357000,-0.161000,-0.898000,-6.611000,2.656000,3.634000,28.77
0.392315,0.377000,-0.156000,-0.901000,-8.702000,5.695000,1.344000,28.62
0.392726,0.383000,-0.160000,-0.895000,-7.176000,4.412000,0.122000,28.62
0.393145,0.366000,-0.151000,-0.859000,-11.588000,8.015000,-0.473000,28.77
0.393573,0.391000,-0.160000,-0.877000,-15.191000,15.740000,0.321000,28.77
0.393996,0.390000,-0.137000,-0.873000,-17.130000,24.366000,0.824000,28.72
0.394447,0.384000,-0.137000,-0.895000,-24.366000,14.031000,1.740000,28.67
0.394876,0.388000,-0.109000,-0.894000,-25.221000,12.046000,1.191000,28.77
0.395291,0.402000,-0.119000,-0.905000,-19.893000,10.763000,0.519000,28.72
0.395717,0.395000,-0.114000,-0.898000,-14.534000,9.802000,-1.359000,28.62
0.396142,0.397000,-0.157000,-0.892000,-7.817000,20.122000,-2.198000,28.67
0.396565,0.412000,-0.160000,-0.895000,-3.221000,25.618000,-0.855000,28.62
0.396977,0.435000,-0.149000,-0.904000,3.176000,20.397000,-1.481000,28.72
0.397386,0.412000,-0.141000,-0.881000,6.977000,20.489000,-0.137000,28.67
0.397812,0.406000,-0.143000,-0.902000,2.183000,13.176000,-0.473000,28.77
0.398232,0.410000,-0.152000,-0.885000,-0.611000,3.008000,3.618000,28.62
0.398645,0.409000,-0.144000,-0.877000,-2.779000,11.756000,6.382000,28.72
0.399094,0.385000,-0.117000,-0.893000,-10.229000,12.473000,6.809000,28.77
0.399514,0.439000,-0.118000,-0.914000,-13.237000,-7.679000,6.382000,28.58
0.399939,0.428000,-0.166000,-0.902000,-19.664000,-25.573000,13.130000,28.72
0.400372,0.410000,-0.145000,-0.905000,-13.191000,-17.267000,13.252000,28.72
0.400793,0.397000,-0.087000,-0.883000,-9.008000,-5.939000,16.565000,28.67
0.401220,0.418000,-0.109000,-0.917000,-13.206000,-8.901000,20.137000,28.72
0.401644,0.400000,-0.161000,-0.908000,-10.519000,-28.687000,30.855000,28.72
0.402064,0.430000,-0.123000,-0.919000,-4.534000,-22.504000,38.992000,28.67
0.402486,0.508000,-0.136000,-0.930000,5.756000,-38.672000,41.160000,28.67
0.402902,0.412000,-0.169000,-0.872000,6.290000,-29.573000,52.656000,28.62
0.403322,0.231000,-0.211000,-0.873000,-1.206000,-66.824000,70.611000,28.67
0.403741,0.388000,-0.152000,-0.906000,-6.458000,-54.595000,75.725000,28.72
0.404173,0.497000,-0.131000,-1.023000,5.573000,-18.137000,91.313000,28.62
0.404605,0.282000,-0.112000,-0.935000,-4.962000,-26.137000,61.481000,28.72
0.405034,0.237000,-0.130000,-0.948000,-15.405000,-38.168000,24.809000,28.67
0.405464,0.311000,-0.148000,-0.975000,-10.366000,-54.275000,19.160000,28.67
0.405893,0.260000,-0.170000,-0.941000,-6.275000,-56.107000,17.405000,28.72
0.406323,0.232000,-0.174000,-0.915000,-5.710000,-37.832000,7.496000,28.58
0.406770,0.276000,-0.201000,-0.908000,0.290000,-13.359000,1.863000,28.67
0.407177,0.279000,-0.173000,-0.924000,6.687000,4.458000,-2.214000,28.72
0.407596,0.291000,-0.155000,-0.907000,12.321000,29.115000,-5.542000,28.72
0.408027,0.300000,-0.158000,-0.914000,18.947000,46.641000,-8.046000,28.67
0.408457,0.307000,-0.173000,-0.921000,19.496000,55.969000,-10.397000,28.72
0.408955,0.333000,-0.165000,-0.890000,20.870000,61.863000,-13.634000,28.72
0.409566,0.355000,-0.165000,-0.945000,16.336000,41.450000,-18.855000,28.58
0.410034,0.346000,-0.204000,-0.886000,22.198000,31.893000,-22.550000,28.77
0.410501,0.362000,-0.196000,-0.910000,10.565000,17.649000,-19.756000,28.62
0.410941,0.371000,-0.161000,-0.917000,7.405000,9.618000,-24.076000,28.62
0.411431,0.356000,-0.165000,-0.919000,0.687000,-17.053000,-24.840000,28.67
0.411886,0.352000,-0.172000,-0.905000,-3.176000,-19.511000,-25.649000,28.67
0.412313,0.329000,-0.176000,-0.920000,-6.061000,-22.977000,-22.366000,28.62
0.412739,0.365000,-0.167000,-0.948000,-7.069000,-36.779000,-19.496000,28.62
0.413166,0.366000,-0.159000,-0.946000,-10.626000,-48.702000,-26.336000,28.67
0.413599,0.319000,-0.181000,-0.944000,-8.427000,-40.962000,-19.969000,28.72
0.414037,0.281000,-0.235000,-0.886000,-4.046000,-11.740000,-19.664000,28.72
0.414471,0.255000,-0.212000,-0.902000,-1.786000,-3.695000,-21.756000,28.67
0.414888,0.303000,-0.156000,-0.962000,-0.626000,9.573000,-5.802000,28.67
0.415297,0.229000,-0.180000,-0.882000,1.282000,9.588000,0.076000,28.72
0.415722,0.241000,-0.178000,-0.920000,-1.527000,12.489000,-5.023000,28.67
0.416150,0.295000,-0.188000,-0.938000,-0.550000,9.069000,-7.618000,28.67
0.416570,0.342000,-0.170000,-0.923000,6.214000,7.466000,-10.580000,28.72
0.416996,0.311000,-0.141000,-0.942000,11.847000,10.595000,-21.756000,28.72
0.417434,0.339000,-0.135000,-0.908000,15.802000,29.496000,-38.763000,28.67
0.417868,0.363000,-0.157000,-0.877000,27.282000,52.565000,-57.786000,28.67
0.418329,0.351000,-0.109000,-0.907000,55.603000,71.344000,-88.916000,28.72
0.418764,0.456000,-0.109000,-1.229000,83.756000,67.008000,-197.573000,28.77
0.419327,1.449000,-0.966000,-1.372000,-85.634000,-185.969000,-34.931000,28.77
0.419904,0.174000,-0.023000,-0.679000,26.122000,-100.336000,9.282000,28.72
0.420349,0.275000,-0.018000,-0.837000,-6.947000,16.366000,8.779000,28.72
0.420789,0.397000,-0.133000,-0.902000,7.008000,14.046000,-12.794000,28.67
0.421260,0.182000,-0.073000,-0.967000,12.565000,46.153000,-31.160000,28.72
0.421731,0.294000,-0.108000,-0.842000,4.962000,68.519000,-45.878000,28.81
0.422194,0.276000,-0.155000,-0.978000,-10.397000,100.504000,-57.252000,28.67
0.422654,0.382000,-0.156000,-0.893000,-10.031000,100.931000,-58.840000,28.67
0.423105,0.404000,-0.309000,-0.782000,-12.321000,69.344000,-31.725000,28.72
0.423580,0.405000,-0.180000,-0.939000,-10.550000,28.748000,-5.725000,28.72
0.424044,0.493000,-0.348000,-0.885000,-7.908000,-5.023000,17.359000,28.67
0.424493,0.396000,-0.222000,-0.966000,-1.115000,-31.756000,29.359000,28.67
0.424917,0.364000,-0.177000,-0.923000,3.176000,-24.031000,38.626000,28.72
0.425344,0.383000,-0.167000,-0.895000,3.771000,-4.840000,51.191000,28.62
0.425774,0.406000,-0.153000,-0.914000,2.458000,-20.580000,57.420000,28.67
0.426206,0.383000,-0.129000,-0.889000,-0.794000,-27.924000,47.359000,28.72
0.426621,0.374000,-0.135000,-0.896000,1.374000,-17.145000,32.626000,28.72
0.427036,0.400000,-0.180000,-0.846000,4.153000,-9.313000,22.916000,28.67
0.427449,0.409000,-0.191000,-0.849000,6.595000,3.130000,11.557000,28.67
0.427861,0.415000,-0.150000,-0.841000,0.931000,9.405000,-0.779000,28.72
0.428282,0.472000,-0.204000,-0.874000,13.084000,-6.962000,-13.832000,28.72
0.428704,0.461000,-0.160000,-0.853000,20.275000,-30.840000,-27.695000,28.67
0.429211,0.399000,-0.092000,-0.887000,21.115000,-51.359000,-36.092000,28.77
0.429787,0.372000,-0.167000,-0.934000,8.046000,-46.061000,-29.954000,28.81
0.430249,0.268000,-0.258000,-0.900000,5.557000,-33.115000,-16.137000,28.67
0.430689,0.291000,-0.248000,-0.980000,5.664000,-12.763000,-3.267000,28.67
0.431165,0.286000,-0.288000,-0.903000,4.656000,-8.000000,-2.763000,28.72
0.431636,0.385000,-0.236000,-0.964000,5.695000,-21.435000,0.504000,28.62
0.432158,0.351000,-0.200000,-0.949000,2.534000,-18.015000,11.969000,28.58
0.432655,0.270000,-0.227000,-0.940000,-1.420000,-11.115000,15.405000,28.67
0.433167,0.278000,-0.241000,-0.903000,-1.374000,-0.122000,24.046000,28.62
0.433664,0.783000,-0.271000,-1.031000,0.718000,-8.229000,42.504000,28.77
0.434126,0.206000,-0.203000,-0.863000,-5.282000,14.290000,14.931000,28.72
0.434570,0.285000,-0.194000,-0.891000,-3.328000,29.466000,3.084000,28.72
0.435016,0.315000,-0.195000,-0.918000,3.542000,41.008000,0.046000,28.62
0.435460,0.339000,-0.177000,-0.934000,9.038000,47.328000,-0.366000,28.67
0.435900,0.331000,-0.184000,-0.898000,9.603000,52.427000,-0.321000,28.67
0.436396,0.350000,-0.174000,-0.909000,5.802000,51.924000,-2.137000,28.62
0.436864,0.347000,-0.203000,-0.902000,2.641000,47.252000,0.031000,28.67
0.437309,0.325000,-0.195000,-0.917000,-1.481000,47.771000,1.176000,28.77
0.437751,0.330000,-0.219000,-0.903000,-4.763000,40.733000,1.588000,28.72
0.438194,0.347000,-0.212000,-0.913000,-6.244000,32.443000,2.855000,28.62
0.438634,0.354000,-0.224000,-0.909000,-6.534000,20.153000,2.992000,28.67
0.439086,0.361000,-0.251000,-0.886000,-5.267000,13.496000,2.046000,28.72
0.439526,0.350000,-0.203000,-0.891000,-4.137000,8.931000,-1.481000,28.72
0.439968,0.398000,-0.232000,-0.903000,-2.992000,6.382000,-0.641000,28.62
0.440469,0.366000,-0.229000,-0.911000,-2.977000,0.137000,-1.664000,28.67
0.440963,0.386000,-0.233000,-0.896000,-1.450000,2.809000,-2.840000,28.72
0.441415,0.391000,-0.204000,-0.903000,0.382000,3.832000,-4.092000,28.72
0.441843,0.385000,-0.218000,-0.904000,1.115000,9.740000,-4.153000,28.77
0.442269,0.380000,-0.194000,-0.831000,-0.244000,11.588000,-2.931000,28.67
0.442699,0.413000,-0.214000,-0.847000,-3.145000,16.870000,-4.229000,28.62
0.443127,0.396000,-0.215000,-0.890000,-2.916000,19.557000,-5.344000,28.72
0.443595,0.386000,-0.201000,-0.891000,-5.206000,19.740000,-4.977000,28.77
0.444015,0.380000,-0.176000,-0.893000,-5.053000,25.435000,-4.916000,28.72
0.444436,0.419000,-0.225000,-0.891000,-4.824000,27.527000,-4.366000,28.72
0.444864,0.399000,-0.207000,-0.838000,-4.336000,35.267000,-7.176000,28.77
0.445294,0.428000,-0.194000,-0.827000,-9.069000,32.870000,-10.489000,28.77
0.445725,0.466000,-0.234000,-0.890000,-9.511000,32.000000,-15.573000,28.72
0.446158,0.425000,-0.198000,-0.881000,-10.412000,18.519000,-16.687000,28.72
0.446584,0.408000,-0.198000,-0.926000,-9.588000,13.908000,-17.527000,28.67
0.447012,0.416000,-0.166000,-0.937000,-6.718000,0.427000,-18.229000,28.67
0.447440,0.411000,-0.193000,-0.883000,-2.046000,-6.122000,-17.603000,28.81
0.447871,0.414000,-0.187000,-0.858000,-1.221000,-8.718000,-17.282000,28.72
0.448294,0.410000,-0.201000,-0.879000,5.099000,1.130000,-19.450000,28.67
0.448719,0.407000,-0.209000,-0.884000,6.840000,11.939000,-26.718000,28.72
0.449155,0.544000,-0.218000,-0.902000,15.924000,37.053000,-15.435000,28.72
0.449573,0.446000,-0.197000,-0.888000,14.702000,58.489000,-26.168000,28.77
0.449996,0.442000,-0.138000,-0.790000,1.832000,45.389000,-29.969000,28.77
0.450567,0.460000,-0.194000,-0.934000,4.458000,35.405000,-25.420000,28.62
0.451196,0.381000,-0.199000,-0.902000,1.710000,34.840000,-36.000000,28.72
0.451676,0.447000,-0.168000,-0.895000,1.160000,28.198000,-50.122000,28.67
0.452125,0.481000,-0.174000,-0.859000,1.740000,18.611000,-51.557000,28.72
0.452570,0.491000,-0.162000,-0.842000,1.771000,13.985000,-45.511000,28.72
0.453013,0.482000,-0.170000,-0.854000,1.252000,11.450000,-33.649000,28.67
0.453453,0.517000,-0.186000,-0.867000,4.550000,8.931000,-18.504000,28.77
0.453893,0.031000,0.101000,-0.778000,-18.076000,26.183000,-9.389000,28.72
0.454331,0.489000,-0.188000,-0.856000,9.832000,49.954000,-15.389000,28.77
0.454773,0.492000,-0.131000,-0.881000,8.870000,48.595000,-18.031000,28.67
0.455224,0.490000,-0.153000,-0.868000,-4.687000,36.916000,-20.366000,28.72
0.455666,0.539000,-0.139000,-0.759000,-8.733000,22.260000,-12.794000,28.72
0.456161,0.503000,-0.145000,-0.845000,-8.321000,13.130000,-11.985000,28.67
0.456608,0.479000,-0.208000,-0.884000,-10.031000,-3.847000,-7.954000,28.72
0.457037,0.467000,-0.182000,-0.861000,-12.336000,-9.038000,-5.939000,28.62
0.457483,0.493000,-0.186000,-0.889000,-12.351000,-7.969000,-4.550000,28.62
0.457910,0.499000,-0.171000,-0.844000,-14.794000,-7.298000,-5.206000,28.77
0.458334,0.499000,-0.162000,-0.851000,-15.649000,-4.550000,-6.916000,28.81
0.458764,0.502000,-0.127000,-0.791000,-13.832000,5.008000,-12.611000,28.72
0.459195,0.623000,-0.142000,-0.757000,-15.740000,-0.153000,-14.595000,28.67
0.459615,0.516000,-0.098000,-0.874000,-8.885000,9.969000,-23.847000,28.67
0.460049,0.493000,-0.120000,-0.869000,-6.336000,11.282000,-25.832000,28.72
0.460632,0.482000,-0.152000,-0.895000,-5.924000,15.176000,-27.405000,28.72
0.461256,0.479000,-0.166000,-0.859000,-7.115000,20.672000,-27.786000,28.77
0.461700,0.502000,-0.225000,-0.862000,-7.206000,24.137000,-25.115000,28.62
0.462128,0.540000,-0.178000,-0.823000,-5.069000,24.656000,-30.626000,28.72
0.462561,0.615000,-0.168000,-0.769000,0.168000,26.519000,-44.611000,28.67
0.463011,0.666000,-0.094000,-0.840000,-0.137000,35.359000,-68.321000,28.77
0.463438,0.633000,-0.043000,-0.819000,7.863000,53.374000,-87.160000,28.72
0.463881,0.525000,-0.086000,-0.779000,14.885000,44.183000,-88.626000,28.72
0.464344,0.513000,-0.060000,-0.863000,11.725000,47.466000,-83.481000,28.77
0.464890,0.467000,-0.097000,-0.866000,5.878000,31.069000,-72.000000,28.86
0.465351,0.498000,-0.174000,-0.879000,-1.863000,33.740000,-48.916000,28.81
0.465797,0.529000,-0.187000,-0.816000,-10.824000,38.870000,-39.771000,28.77
0.466253,0.593000,-0.107000,-0.862000,-11.435000,27.771000,-32.473000,28.58
0.466696,0.587000,-0.094000,-0.823000,-9.740000,21.374000,-26.351000,28.72
0.467136,0.880000,-0.182000,-0.908000,4.595000,30.702000,-0.458000,28.72
0.467569,0.709000,-0.204000,-0.857000,6.427000,4.168000,-9.710000,28.77
0.468001,0.459000,-0.035000,-0.775000,4.244000,-4.641000,-14.382000,28.77
0.468473,0.515000,-0.038000,-0.888000,-2.794000,4.244000,-11.771000,28.81
0.468900,0.514000,-0.011000,-0.868000,-6.565000,6.809000,-8.962000,28.67
0.469330,0.538000,-0.033000,-0.842000,-10.656000,4.580000,-6.122000,28.62
0.469748,0.588000,-0.054000,-0.843000,-8.885000,-5.847000,-2.748000,28.72
0.470170,0.593000,-0.096000,-0.820000,-4.824000,-7.695000,2.702000,28.62
0.470705,0.605000,-0.104000,-0.825000,-0.366000,-11.588000,8.763000,28.77
0.471320,0.623000,-0.154000,-0.818000,6.183000,-15.160000,14.672000,28.77
0.471779,0.611000,-0.133000,-0.796000,7.160000,-14.321000,18.595000,28.81
0.472214,0.582000,-0.088000,-0.761000,-0.977000,-14.198000,18.351000,28.72
0.472650,0.596000,-0.145000,-0.851000,-4.412000,-21.908000,23.405000,28.67
0.473097,0.552000,-0.168000,-0.846000,-15.664000,-27.389000,31.573000,28.72
0.473542,0.567000,-0.126000,-0.755000,-19.099000,-42.641000,38.351000,28.72
0.473969,0.522000,-0.106000,-0.863000,-27.023000,-58.000000,47.832000,28.77
0.474402,0.552000,-0.107000,-0.884000,-20.198000,-73.573000,48.107000,28.72
0.474827,0.565000,-0.106000,-0.827000,5.450000,-29.969000,34.000000,28.72
0.475254,0.622000,-0.302000,-0.986000,-26.702000,-11.206000,47.481000,28.72
0.475674,0.258000,-0.245000,-0.949000,1.481000,6.000000,70.412000,28.77
0.476104,0.517000,0.165000,-0.869000,-20.397000,-4.656000,42.931000,28.72
0.476674,0.531000,-0.076000,-0.755000,-4.702000,6.504000,26.916000,28.72
0.477099,0.505000,0.154000,1.020000,-49.573000,-55.252000,27.985000,28.67
0.477530,0.597000,-0.103000,-0.809000,-1.985000,18.366000,12.000000,28.67
0.477945,0.526000,-0.081000,-0.867000,3.634000,-4.015000,8.061000,28.72
0.478359,0.553000,-0.122000,-0.804000,8.672000,-17.344000,6.855000,28.62
0.478782,0.505000,-0.108000,-0.804000,11.802000,-37.664000,2.855000,28.67
0.479197,0.540000,-0.140000,-0.796000,15.053000,-40.351000,0.168000,28.81
0.479619,0.507000,-0.122000,-0.803000,19.924000,-39.588000,-4.992000,28.72
0.480058,0.516000,-0.128000,-0.828000,22.931000,-32.534000,-8.244000,28.72
0.480673,0.495000,-0.119000,-0.806000,34.550000,-31.328000,-16.901000,28.77
0.481451,0.467000,-0.133000,-0.911000,36.992000,-44.046000,-26.015000,28.72
0.481912,0.482000,-0.154000,-0.891000,31.053000,-39.542000,-29.328000,28.72
0.482343,0.498000,-0.110000,-0.889000,23.389000,-46.153000,-31.435000,28.77
0.482772,0.490000,-0.102000,-0.890000,24.916000,-82.748000,-40.565000,28.67
0.483198,0.477000,-0.201000,-0.848000,18.779000,-81.893000,-50.000000,28.62
0.483624,0.547000,-0.205000,-0.838000,17.130000,-97.573000,-50.748000,28.81
0.484053,0.448000,-0.182000,-0.845000,17.496000,-97.267000,-48.611000,28.86
0.484494,0.488000,-0.215000,-0.871000,17.954000,-115.939000,-49.084000,28.72
0.484927,0.508000,-0.118000,-0.822000,25.344000,-153.634000,-67.695000,28.62
0.485362,0.435000,-0.087000,-0.920000,40.290000,-159.618000,-77.786000,28.77
0.485784,0.354000,-0.187000,-0.911000,53.008000,-143.206000,-79.771000,28.67
0.486213,0.319000,-0.176000,-0.963000,46.962000,-112.885000,-76.977000,28.72
0.486640,0.251000,-0.154000,-0.960000,45.679000,-64.061000,-59.328000,28.77
0.487076,0.258000,-0.129000,-1.070000,41.099000,-54.947000,-46.092000,28.81
0.487506,0.285000,-0.201000,-0.935000,38.397000,-39.847000,-38.260000,28.72
0.487925,0.305000,-0.228000,-0.917000,33.511000,-24.824000,-29.939000,28.72
0.488346,0.281000,-0.224000,-0.837000,20.687000,5.008000,-21.740000,28.77
0.488769,0.260000,-0.202000,-0.870000,11.511000,33.084000,-16.550000,28.72
0.489198,0.263000,-0.183000,-0.909000,3.115000,47.206000,-12.504000,28.72
0.489619,0.267000,-0.183000,-0.932000,0.718000,52.855000,-7.863000,28.67
0.490045,0.275000,-0.194000,-0.953000,-0.427000,44.534000,-3.160000,28.62
0.490565,0.278000,-0.183000,-0.954000,2.061000,38.656000,-0.076000,28.72
0.490991,0.292000,-0.159000,-0.929000,2.061000,34.992000,3.160000,28.77
0.491400,0.299000,-0.177000,-0.921000,1.282000,37.771000,6.214000,28.67
0.491816,0.308000,-0.156000,-0.924000,-5.908000,37.786000,5.756000,28.72
0.492242,0.325000,-0.136000,-0.937000,-12.733000,27.756000,3.740000,28.67
0.492660,0.345000,-0.146000,-0.921000,-16.076000,24.183000,4.626000,28.67
0.493111,0.379000,-0.171000,-0.905000,-14.748000,19.588000,5.557000,28.72
0.493524,0.367000,-0.178000,-0.901000,-13.985000,14.595000,8.397000,28.72
0.493944,0.350000,-0.177000,-0.934000,-15.344000,14.382000,13.466000,28.86
0.494366,0.328000,-0.188000,-0.927000,-20.580000,13.206000,19.267000,28.81
0.494788,0.341000,-0.208000,-0.925000,-28.473000,20.061000,27.298000,28.72
0.495214,0.334000,-0.202000,-0.908000,-32.901000,26.763000,38.351000,28.67
0.495640,0.342000,-0.171000,-0.954000,-40.809000,44.427000,48.397000,28.77
0.496072,0.348000,-0.131000,-0.936000,-47.817000,47.878000,55.252000,28.72
0.496499,0.323000,-0.177000,-0.889000,-73.023000,68.168000,58.794000,28.77
0.496920,0.391000,-0.160000,-0.956000,-84.168000,62.443000,53.099000,28.72
0.497354,0.506000,-0.336000,-0.846000,-81.832000,52.458000,53.771000,28.72
0.497784,0.362000,-0.131000,-0.912000,-82.336000,80.244000,54.656000,28.72
0.498218,0.458000,-0.159000,-0.879000,-74.305000,57.160000,69.466000,28.67
0.498644,0.460000,-0.081000,-0.866000,-45.771000,48.855000,60.809000,28.72
0.499060,0.470000,-0.075000,-0.858000,-23.802000,35.420000,36.595000,28.81
0.499477,0.457000,-0.043000,-0.856000,-13.695000,9.237000,26.565000,28.77
0.499891,0.461000,-0.066000,-0.864000,-6.275000,4.336000,13.084000,28.77
0.500330,0.448000,-0.098000,-0.855000,-1.466000,2.595000,7.450000,28.72
0.500930,0.466000,-0.107000,-0.884000,3.328000,-7.435000,6.473000,28.77
0.501549,0.473000,-0.159000,-0.881000,2.000000,-28.168000,17.206000,28.77
0.502046,0.386000,-0.167000,-0.896000,-0.947000,-35.206000,21.435000,28.72
0.502487,0.455000,-0.162000,-0.882000,-6.458000,-36.733000,23.267000,28.72
0.502904,0.471000,-0.148000,-0.870000,-6.458000,-36.107000,31.863000,28.77
0.503332,0.405000,-0.118000,-0.897000,-11.664000,-28.046000,36.473000,28.72
0.503761,0.341000,-0.098000,-0.943000,-20.214000,-28.397000,32.015000,28.81
0.504190,0.314000,-0.097000,-0.953000,-21.374000,-17.252000,24.489000,28.67
0.504619,0.315000,-0.104000,-0.940000,-15.969000,-7.771000,15.267000,28.72
0.505047,0.364000,-0.120000,-0.949000,-5.969000,-5.573000,10.840000,28.72
0.505457,0.360000,-0.144000,-0.956000,3.008000,-4.244000,9.405000,28.77
0.505893,0.344000,-0.133000,-0.932000,9.115000,-2.656000,6.198000,28.77
0.506314,0.346000,-0.142000,-0.935000,11.282000,-1.145000,3.969000,28.72
0.506721,0.351000,-0.144000,-0.922000,11.405000,3.450000,3.084000,28.77
0.507155,0.341000,-0.144000,-0.920000,8.473000,14.870000,0.947000,28.67
0.507595,0.356000,-0.146000,-0.925000,6.992000,23.053000,-0.702000,28.72
0.508019,0.369000,-0.148000,-0.921000,8.656000,30.595000,-0.305000,28.72
0.508426,0.381000,-0.121000,-0.936000,8.244000,30.092000,0.427000,28.77
0.508843,0.389000,-0.135000,-0.915000,5.221000,30.153000,2.061000,28.77
0.509266,0.394000,-0.136000,-0.891000,-5.084000,27.053000,5.817000,28.72
0.509696,0.397000,-0.157000,-0.926000,-15.053000,29.710000,7.664000,28.67
0.510113,0.369000,-0.134000,-0.916000,-21.023000,34.031000,7.298000,28.67
0.510639,0.393000,-0.121000,-0.927000,-29.466000,58.275000,12.504000,28.81
0.511248,0.405000,-0.066000,-0.891000,-29.191000,47.985000,15.145000,28.81
0.511717,0.406000,-0.136000,-0.910000,-34.229000,75.176000,21.008000,28.86
0.512233,0.416000,-0.127000,-0.868000,-45.053000,83.756000,30.107000,28.72
0.512725,0.518000,-0.145000,-0.802000,-26.015000,70.809000,26.244000,28.81
0.513205,0.502000,-0.120000,-0.813000,-10.870000,45.924000,16.000000,28.77
0.513653,0.548000,-0.068000,-0.772000,9.573000,38.107000,-1.695000,28.77
0.514127,0.502000,-0.177000,-0.863000,20.885000,28.748000,-3.023000,28.72
0.514658,0.453000,-0.125000,-0.853000,15.313000,25.756000,-2.473000,28.72
0.515114,0.482000,-0.162000,-0.868000,9.969000,13.786000,-2.076000,28.77
0.515533,0.465000,-0.128000,-0.849000,0.977000,14.473000,-3.618000,28.67
0.515956,0.481000,-0.135000,-0.870000,-0.809000,13.176000,-3.893000,28.72
0.516376,0.483000,-0.133000,-0.861000,-1.206000,8.718000,-5.038000,28.72
0.516793,0.523000,-0.143000,-0.888000,4.015000,0.427000,-4.427000,28.77
0.517224,0.474000,-0.139000,-0.869000,0.794000,-2.748000,-7.053000,28.81
0.517945,0.499000,-0.132000,-0.882000,3.466000,-6.397000,-7.817000,28.72
0.518418,0.499000,-0.123000,-0.876000,7.863000,-15.588000,-8.748000,28.77
0.518883,0.478000,-0.086000,-0.866000,18.687000,-25.420000,-14.565000,28.77
0.519337,0.474000,-0.133000,-0.847000,15.420000,-15.695000,-12.137000,28.72
0.519797,0.464000,-0.091000,-0.854000,12.397000,-14.809000,-13.634000,28.81
0.520247,0.467000,-0.150000,-0.864000,9.435000,-6.794000,-13.756000,28.67
0.520684,0.470000,-0.158000,-0.769000,2.534000,17.237000,-20.260000,28.77
0.521126,0.475000,-0.184000,-0.859000,-0.412000,4.458000,-20.580000,28.72
0.521597,0.391000,-0.183000,-0.837000,-4.427000,34.336000,-40.443000,28.81
0.522093,0.512000,-0.152000,-0.887000,-3.969000,35.160000,-46.947000,28.67
0.522535,0.481000,-0.148000,-0.850000,-6.809000,41.878000,-48.931000,28.72
0.522963,0.537000,-0.129000,-0.863000,-4.122000,22.321000,-49.298000,28.72
0.523391,0.513000,-0.122000,-0.877000,-2.840000,11.771000,-31.985000,28.86
0.523813,0.513000,-0.079000,-0.861000,-5.847000,10.321000,-32.031000,28.77
0.524234,0.504000,-0.090000,-0.865000,-1.511000,3.435000,-36.855000,28.72
0.524653,0.533000,-0.069000,-0.845000,0.580000,-0.260000,-37.603000,28.81
0.525072,0.489000,-0.114000,-0.836000,7.221000,-2.214000,-38.824000,28.77
0.525490,0.429000,-0.124000,-0.894000,2.794000,-10.031000,-30.473000,28.77
0.525921,0.535000,-0.110000,-0.847000,2.809000,-14.412000,-20.840000,28.72
0.526340,0.499000,-0.123000,-0.886000,2.229000,-26.336000,-11.374000,28.67
0.526757,0.443000,-0.112000,-0.901000,0.336000,-20.198000,-8.443000,28.77
0.527201,0.306000,-0.083000,-0.939000,-11.206000,-3.084000,-10.534000,28.81
0.527626,0.443000,-0.097000,-0.923000,-8.901000,11.817000,-22.840000,28.72
0.528042,0.422000,-0.116000,-0.823000,-9.282000,18.947000,-26.412000,28.77
0.528476,0.482000,-0.112000,-0.881000,-14.504000,29.237000,-33.298000,28.77
0.528900,0.505000,-0.101000,-0.864000,-15.344000,25.405000,-30.702000,28.72
0.529330,0.481000,-0.110000,-0.885000,-8.656000,28.534000,-48.656000,28.86
0.529752,0.464000,-0.069000,-0.791000,-8.794000,36.977000,-49.115000,28.72
0.530176,0.493000,-0.028000,-0.842000,2.504000,32.473000,-47.435000,28.72
0.530601,0.474000,-0.085000,-0.817000,7.771000,30.840000,-47.756000,28.81
0.531018,0.544000,-0.074000,-0.869000,1.695000,39.679000,-44.214000,28.77
0.531588,0.551000,-0.054000,-0.858000,4.183000,37.206000,-35.099000,28.77
0.532230,0.539000,-0.053000,-0.896000,7.206000,34.504000,-29.710000,28.81
0.532695,0.531000,-0.086000,-0.885000,5.954000,36.885000,-27.985000,28.77
0.533124,0.526000,-0.103000,-0.905000,-5.282000,48.504000,-25.878000,28.67
0.533555,0.527000,-0.116000,-0.869000,-15.481000,57.695000,-26.015000,28.72
0.533983,0.537000,-0.125000,-0.822000,-24.702000,69.588000,-26.809000,28.72
0.534407,0.654000,0.005000,-0.917000,-32.092000,73.344000,-33.298000,28.77
0.534838,0.618000,-0.093000,-0.759000,-29.481000,59.450000,-22.366000,28.81
0.535262,0.660000,0.013000,-0.763000,-17.985000,47.985000,-14.473000,28.81
0.535685,0.641000,-0.031000,-0.817000,-1.679000,23.695000,-12.855000,28.67
0.536099,0.607000,0.018000,-0.837000,8.397000,22.183000,-13.756000,28.77
0.536520,0.657000,0.001000,-0.777000,21.679000,12.489000,-5.908000,28.72
0.536944,0.622000,-0.060000,-0.796000,24.855000,19.664000,-1.649000,28.72
0.537363,0.593000,-0.042000,-0.781000,22.443000,37.359000,-4.611000,28.77
0.537786,0.657000,-0.059000,-0.802000,22.153000,32.840000,-4.840000,28.67
0.538208,0.617000,-0.081000,-0.783000,20.473000,36.015000,2.992000,28.81
0.538624,0.541000,-0.073000,-0.738000,11.023000,56.458000,1.511000,28.81
0.539043,0.614000,-0.071000,-0.805000,3.557000,71.191000,0.656000,28.77
0.539455,0.528000,-0.014000,-0.758000,-1.206000,80.840000,3.252000,28.72
0.539867,0.571000,0.027000,-0.729000,0.244000,79.817000,0.092000,28.81
0.540278,0.649000,0.002000,-0.789000,8.321000,74.183000,-2.611000,28.77
0.540705,0.615000,-0.019000,-0.736000,11.603000,69.008000,-5.573000,28.77
0.541126,0.657000,-0.032000,-0.771000,14.351000,58.489000,-7.344000,28.81
0.541690,0.646000,-0.059000,-0.759000,13.252000,48.305000,-6.870000,28.81
0.542405,0.663000,-0.044000,-0.720000,9.023000,35.725000,-7.634000,28.77
0.542849,0.677000,-0.062000,-0.709000,4.718000,22.366000,-7.084000,28.72
0.543280,0.676000,-0.051000,-0.688000,-0.305000,13.328000,-4.718000,28.81
0.543701,0.686000,-0.038000,-0.689000,-9.878000,1.252000,-1.466000,28.77
0.544124,0.693000,-0.057000,-0.701000,-19.710000,-12.351000,4.305000,28.67
0.544550,0.714000,-0.070000,-0.705000,-29.359000,-25.710000,11.313000,28.72
0.544981,0.709000,-0.101000,-0.739000,-37.206000,-38.443000,18.397000,28.72
0.545414,0.678000,-0.094000,-0.773000,-40.137000,-44.885000,21.924000,28.67
0.545840,0.696000,-0.081000,-0.776000,-35.878000,-58.977000,24.244000,28.77
0.546268,0.636000,-0.069000,-0.810000,-29.863000,-44.031000,20.748000,28.72
0.546695,0.707000,-0.059000,-0.832000,-29.588000,-70.977000,25.405000,28.67
0.547137,0.660000,-0.021000,-0.824000,-27.878000,-36.824000,25.435000,28.77
0.547556,0.595000,-0.097000,-0.845000,-30.901000,-8.885000,27.145000,28.81
0.547992,0.520000,-0.064000,-0.763000,-18.183000,-17.557000,18.458000,28.72
0.548422,0.667000,-0.046000,-0.667000,-3.115000,8.885000,10.672000,28.77
0.548981,0.723000,0.001000,-0.762000,14.076000,11.099000,-2.947000,28.86
0.549586,0.636000,-0.088000,-0.688000,24.473000,1.618000,-7.450000,28.72
0.550058,0.649000,-0.062000,-0.754000,16.763000,-13.649000,-5.252000,28.72
0.550509,0.645000,-0.060000,-0.787000,6.458000,-14.641000,-1.939000,28.86
0.550959,0.598000,-0.059000,-0.787000,2.992000,-13.634000,-2.000000,28.77
0.551405,0.671000,-0.054000,-0.780000,5.160000,-21.221000,0.504000,28.72
0.551858,0.657000,-0.032000,-0.809000,11.695000,-35.847000,1.160000,28.77
0.552342,0.606000,-0.073000,-0.786000,15.710000,-37.954000,1.023000,28.67
0.552792,0.564000,-0.066000,-0.782000,11.221000,-27.466000,-0.183000,28.81
0.553217,0.637000,-0.035000,-0.792000,8.473000,-23.832000,-0.183000,28.72
0.553636,0.603000,-0.040000,-0.799000,7.084000,-19.695000,-0.153000,28.77
0.554065,0.604000,-0.061000,-0.786000,4.840000,-11.191000,-1.176000,28.77
0.554489,0.613000,-0.059000,-0.798000,4.824000,-5.160000,-1.344000,28.72
0.554907,0.620000,-0.087000,-0.767000,4.443000,-6.931000,-0.229000,28.81
0.555345,0.620000,-0.080000,-0.768000,4.046000,-3.344000,-1.481000,28.77
0.555769,0.587000,-0.073000,-0.775000,0.443000,8.153000,-4.565000,28.81
0.556199,0.611000,-0.085000,-0.769000,-1.878000,15.985000,-7.420000,28.81
0.556626,0.623000,-0.073000,-0.788000,-0.824000,11.038000,-7.695000,28.67
0.557043,0.529000,-0.100000,-0.807000,1.527000,28.000000,2.397000,28.72
0.557471,0.735000,-0.113000,-0.539000,27.130000,-52.000000,1.099000,28.72
0.557907,0.615000,-0.061000,-0.821000,84.061000,-112.305000,-7.588000,28.72
0.558331,0.551000,-0.092000,-0.829000,65.588000,-52.718000,-9.893000,28.77
0.558758,0.594000,-0.105000,-0.794000,53.130000,-63.527000,-8.870000,28.77
0.559326,0.583000,-0.102000,-0.782000,54.504000,-69.282000,-12.122000,28.72
0.559957,0.563000,-0.109000,-0.852000,45.435000,-41.221000,-14.534000,28.77
0.560422,0.551000,-0.131000,-0.812000,48.702000,-20.611000,-17.969000,28.77
0.560903,0.522000,-0.111000,-0.851000,39.969000,8.550000,-14.947000,28.72
0.561346,0.536000,-0.164000,-0.869000,24.779000,40.000000,-11.863000,28.72
0.561783,0.520000,-0.106000,-0.805000,12.336000,45.206000,-13.588000,28.67
0.562213,0.625000,-0.149000,-0.836000,-2.061000,40.000000,-8.397000,28.81
0.562634,0.498000,-0.120000,-0.721000,-7.405000,40.473000,-3.038000,28.81
0.563064,0.583000,-0.134000,-0.783000,-21.298000,37.832000,1.527000,28.77
0.563490,0.578000,-0.111000,-0.790000,-17.221000,26.168000,2.702000,28.86
0.563906,0.604000,-0.204000,-0.585000,-1.847000,17.664000,1.985000,28.72
0.564327,0.625000,-0.168000,-0.796000,0.214000,-2.000000,-0.275000,28.72
0.564755,0.615000,-0.135000,-0.769000,-1.634000,-13.802000,0.168000,28.77
0.565171,0.583000,-0.128000,-0.778000,0.366000,-23.802000,2.275000,28.77
0.565587,0.592000,-0.093000,-0.804000,0.702000,-37.695000,2.748000,28.72
0.566017,0.575000,-0.136000,-0.808000,-4.290000,-47.771000,5.954000,28.77
0.566435,0.563000,-0.133000,-0.840000,-8.046000,-36.092000,5.985000,28.86
0.566853,0.554000,-0.110000,-0.830000,-12.580000,-29.069000,7.023000,28.81
0.567320,0.571000,-0.118000,-0.855000,-19.878000,-13.725000,7.267000,28.72
0.567739,0.537000,-0.138000,-0.832000,-31.313000,-0.489000,9.863000,28.86
0.568172,0.554000,-0.132000,-0.842000,-32.977000,-2.031000,11.130000,28.77
0.568595,0.538000,-0.120000,-0.810000,-30.504000,7.237000,12.504000,28.72
0.569105,0.535000,-0.082000,-0.749000,-21.267000,3.969000,10.000000,28.86
0.569720,0.568000,-0.113000,-0.817000,-11.298000,-4.397000,7.481000,28.77
0.570177,0.546000,-0.083000,-0.814000,-4.412000,-12.763000,5.649000,28.81
0.570627,0.539000,-0.103000,-0.813000,2.244000,-5.863000,3.023000,28.72
0.571150,0.538000,-0.096000,-0.813000,8.336000,-4.351000,1.893000,28.77
0.571662,0.546000,-0.116000,-0.841000,9.450000,-5.573000,1.023000,28.86
0.572196,0.528000,-0.122000,-0.847000,7.908000,-2.641000,0.626000,28.72
0.572689,0.534000,-0.119000,-0.845000,6.702000,1.008000,0.122000,28.77
0.573139,0.543000,-0.129000,-0.823000,5.924000,2.626000,-0.809000,28.67
0.573664,0.539000,-0.117000,-0.822000,4.412000,7.924000,-1.069000,28.81
0.574110,0.542000,-0.105000,-0.831000,1.756000,8.321000,-2.489000,28.72
0.574532,0.547000,-0.123000,-0.834000,-1.389000,11.008000,-2.107000,28.77
0.574951,0.559000,-0.134000,-0.819000,-3.328000,13.679000,-2.122000,28.81
0.575381,0.542000,-0.140000,-0.828000,-7.496000,17.008000,-3.160000,28.72
0.575812,0.537000,-0.129000,-0.832000,-10.000000,22.916000,-3.282000,28.77
0.576239,0.549000,-0.136000,-0.835000,-18.595000,33.176000,-2.290000,28.77
0.576663,0.536000,-0.132000,-0.830000,-33.557000,60.809000,-0.656000,28.72
0.577092,0.560000,-0.113000,-0.848000,-46.779000,84.260000,3.313000,28.81
0.577516,0.604000,-0.092000,-0.816000,-54.000000,88.168000,4.580000,28.77
0.577943,0.980000,0.154000,-0.872000,13.450000,-82.015000,-5.863000,28.77
0.578365,0.438000,-0.168000,-0.637000,-3.359000,21.313000,-1.802000,28.81
0.578779,0.605000,-0.076000,-0.842000,-1.053000,5.084000,-1.802000,28.81
0.579200,0.613000,-0.114000,-0.837000,-4.046000,-0.183000,-1.053000,28.77
0.579621,0.751000,-0.052000,-0.852000,-2.153000,-5.786000,-1.893000,28.72
0.580038,0.475000,-0.100000,-0.888000,6.840000,-37.725000,2.504000,28.72
0.580452,0.589000,-0.115000,-0.792000,-1.847000,-0.824000,1.053000,28.86
0.580872,0.571000,-0.123000,-0.782000,-1.893000,2.595000,0.473000,28.77
0.581286,0.579000,-0.099000,-0.799000,-2.366000,2.382000,0.198000,28.81
0.581702,0.579000,-0.106000,-0.803000,-2.534000,3.237000,0.214000,28.81
0.582126,0.582000,-0.109000,-0.797000,-2.153000,2.901000,-0.031000,28.86
0.582726,0.576000,-0.107000,-0.800000,-2.092000,2.504000,-0.031000,28.77
0.583174,0.584000,-0.112000,-0.798000,-2.092000,2.382000,-0.183000,28.72
0.583676,0.579000,-0.109000,-0.805000,-2.031000,2.595000,-0.122000,28.81
0.584287,0.584000,-0.106000,-0.799000,-2.290000,3.267000,-0.321000,28.77
0.584759,0.574000,-0.104000,-0.803000,-2.382000,3.634000,-0.305000,28.81
0.585212,0.583000,-0.109000,-0.802000,-2.443000,3.374000,-0.305000,28.81
0.585653,0.575000,-0.106000,-0.803000,-2.351000,2.901000,-0.565000,28.77
0.586086,0.575000,-0.106000,-0.805000,-2.137000,2.962000,-0.534000,28.77
0.586526,0.586000,-0.107000,-0.805000,-2.351000,2.901000,-0.397000,28.81
0.586968,0.581000,-0.108000,-0.806000,-2.366000,2.992000,-0.656000,28.81
0.587478,0.576000,-0.099000,-0.811000,-2.229000,3.221000,-0.550000,28.67
0.587950,0.575000,-0.117000,-0.799000,-2.458000,3.542000,-0.687000,28.77
0.588425,0.580000,-0.091000,-0.804000,-2.458000,3.542000,-0.779000,28.81
0.588869,0.575000,-0.113000,-0.794000,-2.504000,3.328000,-1.023000,28.81
0.589296,0.581000,-0.100000,-0.803000,-2.626000,3.160000,-0.977000,28.77
0.589716,0.578000,-0.120000,-0.798000,-2.901000,3.618000,-0.931000,28.81
0.590134,0.579000,-0.095000,-0.794000,-2.718000,3.466000,-1.267000,28.81
0.590562,0.582000,-0.098000,-0.795000,-2.855000,3.496000,-1.084000,28.77
0.590985,0.575000,-0.108000,-0.801000,-2.611000,3.511000,-0.977000,28.77
0.591397,0.578000,-0.101000,-0.805000,-2.855000,3.389000,-1.069000,28.72
0.591828,0.586000,-0.104000,-0.793000,-2.672000,3.221000,-0.992000,28.81
0.592279,0.582000,-0.097000,-0.805000,-2.427000,2.977000,-1.115000,28.77
0.592695,0.581000,-0.106000,-0.804000,-2.534000,3.176000,-0.840000,28.77
0.593109,0.580000,-0.091000,-0.803000,-2.427000,3.466000,-0.901000,28.72
0.593613,0.576000,-0.111000,-0.804000,-2.656000,3.282000,-0.443000,28.81
0.594193,0.582000,-0.097000,-0.800000,-2.290000,2.931000,-0.641000,28.86
0.594654,0.582000,-0.104000,-0.806000,-2.305000,3.160000,-0.687000,28.72
0.595089,0.576000,-0.103000,-0.804000,-2.214000,3.267000,-0.718000,28.72
0.595499,0.577000,-0.101000,-0.795000,-2.412000,3.313000,-0.916000,28.77
0.595921,0.587000,-0.102000,-0.799000,-2.183000,3.221000,-0.809000,28.86
0.596345,0.583000,-0.101000,-0.796000,-2.244000,3.099000,-0.794000,28.81
0.596762,0.584000,-0.105000,-0.801000,-1.969000,3.084000,-0.779000,28.81
0.597184,0.582000,-0.094000,-0.803000,-2.137000,3.008000,-0.733000,28.67
0.597607,0.581000,-0.102000,-0.806000,-2.061000,3.008000,-0.702000,28.86
0.598023,0.582000,-0.102000,-0.796000,-2.015000,3.130000,-0.550000,28.72
0.598443,0.580000,-0.102000,-0.796000,-1.847000,2.992000,-0.626000,28.77
0.598860,0.576000,-0.097000,-0.803000,-1.908000,3.206000,-0.534000,28.86
0.599279,0.581000,-0.104000,-0.799000,-1.969000,3.084000,-0.565000,28.72
0.599693,0.584000,-0.107000,-0.799000,-1.893000,2.992000,-0.595000,28.81
0.600109,0.583000,-0.102000,-0.803000,-2.107000,3.221000,-0.687000,28.77
0.600528,0.578000,-0.098000,-0.798000,-2.092000,2.947000,-0.748000,28.77
0.600944,0.583000,-0.099000,-0.801000,-2.229000,3.115000,-0.595000,28.81
0.601358,0.583000,-0.102000,-0.800000,-2.168000,3.008000,-0.916000,28.81
0.601774,0.585000,-0.102000,-0.798000,-2.260000,3.038000,-0.779000,28.86
0.602192,0.583000,-0.102000,-0.803000,-2.183000,2.916000,-0.779000,28.81
0.602612,0.581000,-0.100000,-0.803000,-2.015000,2.947000,-0.656000,28.81
0.603036,0.580000,-0.098000,-0.802000,-1.939000,2.855000,-0.763000,28.77
0.603537,0.582000,-0.102000,-0.801000,-1.847000,2.992000,-0.595000,28.77
0.604133,0.583000,-0.099000,-0.803000,-1.939000,2.947000,-0.687000,28.72
0.604582,0.581000,-0.102000,-0.802000,-2.092000,3.008000,-0.641000,28.81
0.605037,0.581000,-0.105000,-0.797000,-2.046000,3.115000,-0.931000,28.77
0.605482,0.576000,-0.097000,-0.796000,-2.107000,2.901000,-0.992000,28.86
0.605940,0.583000,-0.092000,-0.793000,-2.366000,3.099000,-0.885000,28.81
0.606393,0.574000,-0.098000,-0.804000,-1.939000,3.008000,-0.931000,28.77
0.606834,0.577000,-0.098000,-0.797000,-2.046000,3.511000,-0.901000,28.86
0.607377,0.581000,-0.104000,-0.800000,-2.153000,3.389000,-0.855000,28.81
0.607820,0.579000,-0.100000,-0.803000,-2.214000,3.221000,-0.977000,28.72
0.608234,0.575000,-0.145000,-0.801000,-1.985000,4.885000,-0.977000,28.77
0.608651,0.588000,-0.095000,-0.789000,-1.969000,2.382000,-1.191000,28.77
0.609071,0.580000,-0.104000,-0.794000,-2.504000,3.450000,-0.840000,28.72
0.609490,0.581000,-0.084000,-0.803000,-1.176000,1.939000,-0.855000,28.81
0.609912,0.591000,-0.097000,-0.794000,-1.542000,2.687000,-0.992000,28.77
0.610329,0.585000,-0.104000,-0.806000,-2.580000,2.595000,-1.237000,28.77
0.610747,0.584000,-0.098000,-0.796000,-2.809000,1.267000,-0.977000,28.81
0.611164,0.573000,-0.094000,-0.798000,-2.443000,2.443000,-0.779000,28.77
0.611577,0.581000,-0.102000,-0.808000,-2.153000,3.924000,-0.870000,28.72
0.611998,0.582000,-0.102000,-0.798000,-1.878000,4.763000,-0.779000,28.81
0.612413,0.581000,-0.104000,-0.804000,-1.771000,3.221000,-0.565000,28.81
0.612831,0.579000,-0.103000,-0.798000,-2.122000,2.107000,-0.748000,28.77
0.613249,0.580000,-0.103000,-0.802000,-2.015000,1.771000,-0.779000,28.77
0.613795,0.584000,-0.103000,-0.807000,-2.183000,2.519000,-0.840000,28.72
0.614430,0.585000,-0.098000,-0.800000,-2.000000,3.588000,-0.565000,28.81
0.614887,0.578000,-0.104000,-0.798000,-1.527000,3.420000,-0.656000,28.86
0.615350,0.584000,-0.100000,-0.800000,-1.511000,2.901000,-0.641000,28.86
0.615790,0.584000,-0.102000,-0.797000,-1.573000,2.321000,-0.550000,28.72
0.616225,0.577000,-0.102000,-0.803000,-1.542000,1.939000,-0.504000,28.72
0.616649,0.583000,-0.101000,-0.798000,-1.695000,1.954000,-0.550000,28.86
0.617082,0.581000,-0.099000,-0.798000,-1.939000,2.641000,-0.366000,28.81
0.617527,0.579000,-0.101000,-0.797000,-1.863000,2.656000,-0.748000,28.81
0.617950,0.585000,-0.098000,-0.796000,-2.031000,2.916000,-0.687000,28.77
0.618375,0.583000,-0.100000,-0.808000,-2.229000,2.763000,-0.748000,28.77
0.618795,0.542000,-0.131000,-0.792000,-1.023000,5.863000,1.115000,28.81
0.619218,0.641000,-0.019000,-0.775000,-2.763000,10.183000,2.229000,28.91
0.619633,0.479000,-0.269000,-0.831000,-0.824000,6.427000,8.458000,28.86
0.620056,0.598000,-0.069000,-0.855000,-2.305000,-2.870000,-1.435000,28.86
0.620482,0.570000,-0.139000,-0.800000,-1.313000,-5.420000,-1.038000,28.81
0.620903,0.575000,-0.147000,-0.778000,-2.122000,0.977000,0.382000,28.81
0.621336,0.585000,-0.107000,-0.774000,-0.122000,-0.290000,1.099000,28.77
0.621758,0.571000,-0.070000,-0.798000,-0.824000,-0.122000,0.229000,28.81
0.622425,0.593000,-0.107000,-0.798000,-0.122000,-1.588000,0.076000,28.91
0.623034,0.574000,-0.084000,-0.787000,-0.458000,-0.580000,0.458000,28.86
0.623550,0.567000,-0.104000,-0.808000,-0.305000,-0.382000,0.611000,28.77
0.624028,0.585000,-0.097000,-0.804000,0.824000,0.244000,0.519000,28.81
0.624473,0.573000,-0.101000,-0.803000,0.931000,2.229000,0.382000,28.81
0.624882,0.567000,-0.105000,-0.803000,0.489000,2.443000,0.412000,28.77
0.625295,0.563000,-0.099000,-0.815000,0.046000,3.206000,0.137000,28.77
0.625715,0.585000,-0.104000,-0.802000,-1.527000,1.802000,-1.328000,28.81
0.626137,0.585000,-0.093000,-0.801000,-1.588000,0.870000,-2.229000,28.81
0.626556,0.568000,-0.113000,-0.794000,-1.252000,-1.817000,-2.122000,28.77
0.626986,0.571000,-0.116000,-0.789000,-1.527000,-1.313000,-3.038000,28.77
0.627408,0.603000,-0.095000,-0.799000,-0.779000,-2.748000,-2.244000,28.81
0.627847,0.566000,-0.111000,-0.800000,1.115000,-1.924000,-0.962000,28.77
0.628274,0.562000,-0.105000,-0.821000,-1.252000,4.687000,-0.687000,28.77
0.628699,0.555000,-0.110000,-0.809000,-2.931000,13.206000,0.931000,28.91
0.629136,0.594000,-0.103000,-0.809000,-5.573000,16.504000,-0.260000,28.81
0.629565,0.586000,-0.085000,-0.785000,-5.069000,17.298000,-0.305000,28.86
0.629993,0.581000,-0.023000,-0.837000,-5.481000,9.985000,-1.893000,28.77
0.630408,0.569000,-0.073000,-0.742000,0.855000,6.855000,0.595000,28.81
0.630839,0.575000,-0.052000,-0.823000,1.038000,4.458000,0.107000,28.72
0.631255,0.606000,-0.073000,-0.729000,0.198000,4.763000,-0.153000,28.86
0.631672,0.565000,-0.066000,-0.774000,0.351000,-2.427000,-0.534000,28.86
0.632090,0.584000,-0.102000,-0.806000,-0.565000,-0.153000,-0.534000,28.91
0.632506,0.582000,-0.094000,-0.818000,0.031000,1.908000,-0.840000,28.81
0.632922,0.576000,-0.100000,-0.808000,0.015000,4.107000,-1.359000,28.77
0.633348,0.590000,-0.124000,-0.808000,-0.519000,3.420000,-0.763000,28.91
0.633871,0.578000,-0.134000,-0.788000,-1.008000,3.573000,-0.519000,28.81
0.634303,0.576000,-0.125000,-0.798000,-1.893000,4.122000,-1.359000,28.77
0.634726,0.577000,-0.116000,-0.799000,-1.893000,3.466000,-1.725000,28.86
0.635144,0.599000,-0.125000,-0.799000,-2.153000,0.198000,-2.550000,28.91
0.635571,0.575000,-0.044000,-0.798000,-0.351000,3.573000,-1.252000,28.81
0.635992,0.515000,-0.121000,-0.729000,-2.489000,5.145000,-2.046000,28.86
0.636420,0.562000,-0.084000,-0.827000,-4.031000,7.802000,-2.427000,28.77
0.636839,0.562000,-0.130000,-0.792000,-2.824000,7.450000,-2.840000,28.81
0.637254,0.591000,-0.096000,-0.800000,-3.771000,4.565000,-3.756000,28.81
0.637671,0.581000,-0.090000,-0.800000,-3.557000,5.221000,-3.603000,28.77
0.638093,0.626000,-0.053000,-0.810000,-5.420000,8.855000,-4.382000,28.81
0.638532,0.570000,-0.092000,-0.807000,-1.588000,2.489000,-2.916000,28.81
0.638966,0.620000,-0.067000,-0.770000,-0.824000,3.282000,-2.275000,28.81
0.639375,0.542000,-0.071000,-0.657000,6.641000,13.756000,8.244000,28.86
0.639788,0.560000,-0.149000,-0.843000,-3.985000,3.542000,0.794000,28.77
0.640218,0.629000,-0.361000,-0.825000,-7.847000,14.412000,-0.641000,28.81
0.640632,0.606000,0.069000,-0.862000,0.947000,-3.878000,0.366000,28.81
0.641039,0.584000,-0.223000,-0.739000,-1.496000,7.435000,1.191000,28.86
0.641453,0.566000,-0.063000,-0.796000,-4.534000,9.084000,0.916000,28.81
0.641890,0.599000,-0.087000,-0.800000,-2.519000,0.321000,0.168000,28.81
0.642305,0.582000,-0.041000,-0.805000,0.351000,-0.382000,0.321000,28.86
0.642708,0.591000,-0.102000,-0.785000,-0.794000,4.260000,0.137000,28.81
0.643147,0.586000,-0.090000,-0.798000,-0.473000,3.023000,0.137000,28.91
0.643692,0.580000,-0.101000,-0.800000,0.855000,2.122000,1.023000,28.81
0.644345,0.582000,-0.104000,-0.789000,1.435000,3.847000,1.740000,28.86
0.644799,0.578000,-0.108000,-0.789000,1.542000,4.992000,2.031000,28.86
0.645249,0.588000,-0.118000,-0.796000,0.977000,5.237000,1.893000,28.81
0.645702,0.587000,-0.114000,-0.799000,-0.107000,7.847000,2.229000,28.81
0.646142,0.587000,-0.120000,-0.797000,0.122000,4.931000,1.603000,28.77
0.646580,0.585000,-0.102000,-0.799000,-0.076000,4.443000,1.237000,28.77
0.647019,0.588000,-0.098000,-0.803000,-0.763000,3.206000,0.840000,28.81
0.647455,0.583000,-0.110000,-0.784000,-1.893000,3.771000,0.260000,28.81
0.647899,0.574000,-0.100000,-0.800000,-2.290000,2.626000,-0.443000,28.77
0.648501,0.577000,-0.127000,-0.788000,-1.221000,3.481000,0.321000,28.91
0.648951,0.585000,-0.100000,-0.800000,0.214000,3.740000,0.611000,28.72
0.649395,0.587000,-0.092000,-0.784000,-0.260000,4.214000,-0.427000,28.86
0.649835,0.586000,-0.107000,-0.793000,-0.885000,4.122000,-0.672000,28.86
0.650259,0.592000,-0.125000,-0.812000,-1.145000,5.099000,-0.718000,28.81
0.650704,0.575000,-0.107000,-0.798000,-0.809000,4.214000,-0.595000,28.81
0.651146,0.582000,-0.112000,-0.787000,-0.840000,3.740000,-0.840000,28.77
0.651585,0.578000,-0.103000,-0.800000,-0.550000,4.046000,-1.344000,28.77
0.652021,0.579000,-0.099000,-0.806000,-0.382000,3.954000,-1.939000,28.81
0.652464,0.581000,-0.101000,-0.795000,-0.473000,2.687000,-1.771000,28.72
0.652979,0.590000,-0.122000,-0.794000,0.198000,3.695000,-0.672000,28.86
0.653438,0.594000,-0.124000,-0.793000,0.534000,4.534000,-0.137000,28.77
0.653975,0.594000,-0.117000,-0.791000,-0.275000,5.053000,-0.443000,28.81
0.654605,0.483000,-0.143000,-0.792000,-10.733000,35.954000,-1.252000,28.72
0.655069,0.567000,-0.105000,-0.774000,-0.214000,9.328000,-2.198000,28.86
0.655504,0.594000,-0.117000,-0.785000,-2.031000,4.672000,-2.611000,28.72
0.655920,0.598000,-0.101000,-0.799000,-1.710000,2.748000,-2.748000,28.81
0.656338,0.592000,-0.100000,-0.802000,-1.420000,2.718000,-2.305000,28.77
0.656761,0.582000,-0.089000,-0.804000,-1.160000,2.718000,-1.557000,28.77
0.657177,0.576000,-0.099000,-0.799000,-0.321000,1.649000,-0.763000,28.91
0.657600,0.591000,-0.113000,-0.802000,-0.168000,2.015000,-0.336000,28.81
0.658013,0.591000,-0.102000,-0.799000,-0.137000,1.908000,-0.092000,28.86
0.658424,0.589000,-0.112000,-0.797000,0.305000,2.229000,0.412000,28.86
0.658833,0.592000,-0.111000,-0.788000,0.031000,2.977000,0.718000,28.81
0.659253,0.599000,-0.114000,-0.782000,0.183000,3.145000,0.076000,28.81
0.659682,0.599000,-0.127000,-0.793000,-2.244000,4.397000,-0.290000,28.86
0.660209,0.591000,-0.102000,-0.788000,-0.458000,4.519000,-1.008000,28.91
0.660666,0.591000,-0.114000,-0.793000,-1.130000,4.794000,-0.870000,28.91
0.661110,0.599000,-0.109000,-0.793000,-1.496000,4.626000,-1.084000,28.86
0.661551,0.594000,-0.111000,-0.792000,-1.282000,2.656000,-1.313000,28.77
0.662262,0.592000,-0.110000,-0.785000,-1.145000,1.313000,-1.420000,28.81
0.662847,0.586000,-0.104000,-0.795000,-0.626000,1.267000,-0.916000,28.91
0.663318,0.596000,-0.107000,-0.801000,0.000000,0.977000,-0.458000,28.86
0.663782,0.578000,-0.115000,-0.799000,-0.733000,4.321000,-0.046000,28.77
0.664238,0.562000,-0.127000,-0.774000,-0.824000,8.382000,1.038000,28.91
0.664701,0.587000,-0.097000,-0.790000,-1.389000,7.573000,0.137000,28.91
0.665455,0.591000,-0.104000,-0.802000,-0.214000,3.252000,0.550000,28.86
0.665977,0.592000,-0.109000,-0.796000,0.626000,1.221000,0.794000,28.91
0.666465,0.582000,-0.141000,-0.767000,0.550000,2.046000,-0.168000,28.81
0.666912,0.615000,-0.131000,-0.777000,-1.832000,8.076000,-0.229000,28.81
0.667347,0.588000,-0.102000,-0.794000,-0.336000,4.412000,-0.702000,28.86
0.667775,0.591000,-0.104000,-0.798000,-0.580000,4.061000,-0.824000,28.86
0.668244,0.595000,-0.129000,-0.782000,-1.985000,4.824000,-1.084000,28.91
0.668661,0.588000,-0.110000,-0.794000,-1.298000,4.168000,-0.794000,28.77
0.669084,0.592000,-0.115000,-0.790000,-1.252000,4.763000,-0.901000,28.86
0.669574,0.589000,-0.116000,-0.797000,-1.618000,4.916000,-1.237000,28.81
0.670040,0.588000,-0.114000,-0.792000,-1.588000,4.809000,-1.313000,28.81
0.670476,0.598000,-0.113000,-0.797000,-1.511000,4.366000,-1.038000,28.86
0.670914,0.598000,-0.109000,-0.791000,-1.389000,4.595000,-0.870000,28.91
0.671340,0.594000,-0.108000,-0.788000,-1.634000,4.595000,-0.855000,28.91
0.671759,0.580000,-0.120000,-0.792000,-1.145000,4.702000,-0.748000,28.81
0.672175,0.600000,-0.117000,-0.792000,-1.695000,4.870000,-0.840000,28.86
0.672601,0.596000,-0.108000,-0.792000,-1.557000,4.748000,-1.053000,28.86
0.673028,0.587000,-0.118000,-0.795000,-1.756000,4.580000,-1.069000,28.81
0.673620,0.592000,-0.125000,-0.785000,-1.802000,4.794000,-1.084000,28.86
0.674152,0.599000,-0.112000,-0.782000,-2.000000,4.656000,-1.237000,28.77
0.674639,0.599000,-0.109000,-0.793000,-1.695000,4.687000,-1.237000,28.91
0.675328,0.601000,-0.118000,-0.775000,-1.924000,4.443000,-0.885000,28.91
0.675858,0.582000,-0.099000,-0.785000,-1.954000,4.519000,-1.008000,28.77
0.676308,0.598000,-0.106000,-0.786000,-1.985000,3.527000,-0.809000,28.81
0.676758,0.597000,-0.119000,-0.797000,-2.153000,3.695000,-0.718000,28.91
0.677205,0.597000,-0.103000,-0.780000,-2.168000,3.908000,-0.534000,28.91
0.677679,0.596000,-0.110000,-0.787000,-2.061000,3.481000,-0.534000,28.86
0.678139,0.596000,-0.113000,-0.788000,-1.924000,3.160000,-0.305000,28.86
0.678559,0.595000,-0.106000,-0.795000,-2.076000,3.206000,-0.153000,28.81
0.678972,0.602000,-0.117000,-0.798000,-1.893000,2.992000,0.153000,28.86
0.679385,0.603000,-0.110000,-0.785000,-1.771000,2.809000,0.229000,28.86
0.679801,0.593000,-0.109000,-0.789000,-1.603000,2.870000,0.122000,28.81
0.680215,0.592000,-0.118000,-0.791000,-1.817000,2.733000,0.229000,28.81
0.680624,0.597000,-0.121000,-0.794000,-2.031000,2.702000,0.168000,28.86
0.681038,0.594000,-0.115000,-0.784000,-2.076000,2.504000,0.153000,28.81
0.681452,0.597000,-0.115000,-0.785000,-1.908000,2.366000,0.168000,28.81
0.681872,0.593000,-0.120000,-0.790000,-1.939000,2.412000,0.168000,28.81
0.682308,0.592000,-0.118000,-0.788000,-2.107000,2.107000,0.183000,28.77
0.682742,0.597000,-0.114000,-0.788000,-1.969000,1.924000,0.092000,28.86
0.683153,0.598000,-0.115000,-0.786000,-1.924000,1.954000,0.046000,28.91
0.683562,0.595000,-0.115000,-0.790000,-1.817000,1.832000,0.122000,28.81
0.683982,0.592000,-0.114000,-0.791000,-1.985000,1.725000,0.153000,28.86
0.684412,0.591000,-0.114000,-0.792000,-2.000000,1.695000,0.260000,28.77
0.684972,0.593000,-0.112000,-0.798000,-2.122000,1.710000,0.046000,28.91
0.685676,0.597000,-0.115000,-0.787000,-2.198000,1.710000,0.168000,28.95
0.686135,0.591000,-0.117000,-0.792000,-2.290000,1.756000,-0.076000,28.77
0.686555,0.595000,-0.118000,-0.794000,-2.473000,1.985000,-0.198000,28.91
0.686980,0.590000,-0.116000,-0.793000,-2.672000,1.863000,-0.122000,28.81
0.687392,0.601000,-0.118000,-0.795000,-2.763000,2.000000,-0.092000,28.86
0.687816,0.598000,-0.110000,-0.789000,-2.321000,1.939000,-0.092000,28.95
0.688242,0.591000,-0.118000,-0.789000,-2.351000,1.786000,-0.046000,28.81
0.688651,0.592000,-0.117000,-0.782000,-2.504000,2.107000,0.031000,28.81
0.689069,0.596000,-0.121000,-0.792000,-2.641000,2.031000,-0.244000,28.95
0.689482,0.599000,-0.111000,-0.788000,-2.840000,1.740000,-0.137000,28.86
0.689896,0.594000,-0.107000,-0.793000,-2.718000,1.878000,0.015000,28.91
0.690320,0.589000,-0.121000,-0.791000,-2.595000,2.031000,-0.229000,28.86
0.690752,0.592000,-0.113000,-0.791000,-2.427000,2.015000,-0.351000,28.86
0.691199,0.597000,-0.109000,-0.787000,-2.504000,2.183000,-0.168000,28.81
0.691624,0.591000,-0.110000,-0.789000,-2.580000,2.397000,-0.214000,28.72
0.692039,0.585000,-0.121000,-0.784000,-2.519000,2.565000,-0.443000,28.95
0.692459,0.585000,-0.119000,-0.794000,-2.519000,2.534000,-0.718000,28.86
0.692875,0.593000,-0.116000,-0.788000,-2.565000,2.153000,-0.824000,28.81
0.693293,0.592000,-0.118000,-0.784000,-2.687000,2.260000,-0.840000,28.91
0.693747,0.591000,-0.115000,-0.792000,-2.489000,2.534000,-0.870000,28.86
0.694157,0.592000,-0.117000,-0.784000,-2.901000,2.733000,-0.962000,28.86
0.694750,0.588000,-0.117000,-0.791000,-2.840000,2.626000,-1.038000,28.81
0.695393,0.591000,-0.113000,-0.787000,-2.824000,2.427000,-1.069000,28.81
0.695879,0.591000,-0.109000,-0.792000,-3.069000,2.473000,-1.130000,28.86
0.696396,0.599000,-0.108000,-0.789000,-3.023000,2.168000,-1.252000,28.91
0.696842,0.598000,-0.113000,-0.786000,-2.794000,2.473000,-1.176000,28.91
0.697261,0.592000,-0.110000,-0.792000,-2.763000,2.473000,-1.145000,28.95
0.697684,0.587000,-0.113000,-0.786000,-2.718000,2.000000,-0.809000,28.86
0.698107,0.589000,-0.105000,-0.792000,-2.595000,2.137000,-0.824000,28.72
0.698547,0.585000,-0.120000,-0.789000,-2.412000,2.061000,-0.779000,28.91
0.698968,0.589000,-0.114000,-0.791000,-2.305000,2.153000,-0.702000,28.86
0.699381,0.584000,-0.109000,-0.786000,-2.000000,2.031000,-0.595000,28.95
0.699793,0.593000,-0.114000,-0.787000,-2.275000,2.214000,-0.397000,28.81
0.700204,0.589000,-0.110000,-0.804000,-2.153000,2.260000,-0.412000,28.81
0.700619,0.590000,-0.109000,-0.790000,-2.275000,2.382000,-0.366000,28.86
0.701051,0.597000,-0.104000,-0.786000,-1.954000,2.321000,-0.076000,28.86
0.701469,0.599000,-0.114000,-0.795000,-1.924000,2.061000,0.000000,28.91
0.701876,0.589000,-0.104000,-0.787000,-1.282000,1.618000,0.015000,28.81
0.702286,0.591000,-0.114000,-0.781000,-1.893000,1.939000,0.046000,28.86
0.702707,0.594000,-0.119000,-0.798000,-1.908000,1.908000,0.015000,28.81
0.703134,0.586000,-0.111000,-0.796000,-1.725000,1.328000,-0.107000,28.91
0.703545,0.585000,-0.114000,-0.801000,-1.969000,1.786000,0.046000,28.86
0.703969,0.589000,-0.112000,-0.787000,-1.863000,1.863000,-0.092000,28.77
0.704386,0.582000,-0.112000,-0.791000,-1.725000,1.771000,0.137000,28.81
0.704919,0.583000,-0.110000,-0.804000,-1.466000,2.046000,-0.305000,28.91
0.705567,0.588000,-0.112000,-0.799000,-1.863000,2.305000,-0.397000,28.77
0.706053,0.585000,-0.117000,-0.783000,-1.954000,2.977000,-0.534000,28.86
0.706506,0.588000,-0.109000,-0.790000,-1.939000,2.397000,-0.641000,28.91
0.706925,0.593000,-0.106000,-0.795000,-1.832000,2.351000,-0.626000,28.86
0.707348,0.586000,-0.104000,-0.795000,-1.634000,2.992000,-0.611000,28.86
0.707773,0.588000,-0.106000,-0.795000,-1.099000,2.794000,-0.412000,28.91
0.708189,0.597000,-0.095000,-0.795000,-0.641000,2.260000,-0.046000,28.91
0.708614,0.587000,-0.114000,-0.796000,-0.489000,2.336000,0.198000,28.95
0.709028,0.554000,-0.109000,-0.825000,0.672000,-0.947000,1.038000,28.86
0.709445,0.604000,-0.107000,-0.804000,0.336000,0.397000,0.947000,28.91
0.709861,0.577000,-0.074000,-0.781000,1.008000,1.344000,1.176000,28.81
0.710263,0.605000,-0.127000,-0.788000,0.992000,1.649000,1.450000,28.86
0.710671,0.579000,-0.137000,-0.823000,2.107000,-1.695000,1.573000,28.86
0.711091,0.573000,-0.083000,-0.789000,1.939000,-2.977000,0.992000,28.91
0.711496,0.562000,-0.118000,-0.812000,0.473000,3.313000,1.496000,28.91
0.711912,0.574000,-0.181000,-0.781000,-0.611000,-0.809000,1.603000,28.86
0.712332,0.557000,-0.153000,-0.805000,-0.031000,2.427000,1.420000,28.91
0.712738,0.558000,-0.160000,-0.813000,-0.229000,-0.489000,2.458000,28.91
0.713152,0.551000,-0.106000,-0.827000,0.443000,-2.672000,-0.015000,28.86
0.713581,0.580000,-0.162000,-0.805000,-1.496000,4.550000,-0.565000,28.86
0.714000,0.561000,-0.096000,-0.796000,1.725000,-6.397000,-0.443000,28.81
0.714407,0.553000,-0.076000,-0.967000,-7.450000,-5.939000,0.916000,28.91
0.714951,0.782000,0.354000,-0.385000,0.336000,17.450000,2.168000,28.95
0.715630,1.060000,0.668000,-0.532000,-4.702000,-3.756000,-10.794000,28.86
0.716179,0.507000,0.067000,-0.511000,-33.420000,101.023000,-0.809000,28.81
0.716626,0.435000,-0.185000,-0.427000,-19.557000,108.794000,0.122000,28.91
0.717044,0.737000,-0.137000,-0.937000,-37.023000,32.214000,0.473000,28.86
0.717461,0.619000,-0.054000,-0.856000,-2.092000,-18.000000,0.137000,28.81
0.717878,0.631000,-0.141000,-0.679000,9.588000,-12.382000,-0.519000,28.91
0.718286,0.578000,-0.124000,-0.788000,0.290000,-0.290000,-1.130000,28.91
0.718735,0.595000,-0.147000,-0.777000,-4.534000,8.458000,-1.847000,28.95
0.719151,0.602000,-0.110000,-0.785000,-5.878000,3.710000,-2.733000,28.77
0.719585,0.618000,-0.120000,-0.817000,-3.542000,-3.099000,-3.115000,28.91
0.720000,0.622000,-0.120000,-0.751000,3.267000,-11.206000,-4.290000,28.91
0.720417,0.604000,-0.097000,-0.770000,0.611000,-6.580000,-3.206000,28.86
0.720845,0.598000,-0.097000,-0.792000,-2.809000,-0.046000,-3.389000,28.86
0.721264,0.634000,-0.118000,-0.779000,-3.573000,4.809000,-2.962000,28.91
0.721681,0.610000,-0.085000,-0.769000,-3.542000,6.779000,-3.053000,28.95
0.722091,0.616000,-0.090000,-0.790000,-3.069000,4.275000,-2.473000,28.86
0.722512,0.639000,-0.088000,-0.796000,5.237000,-7.053000,-2.198000,28.81
0.722927,0.591000,-0.090000,-0.768000,4.779000,-7.008000,-0.916000,28.81
0.723344,0.579000,-0.088000,-0.759000,7.771000,-17.466000,-1.832000,28.95
0.723764,0.571000,-0.114000,-0.762000,1.145000,-0.611000,-0.824000,28.86
0.724186,0.577000,-0.119000,-0.794000,-2.565000,5.863000,-0.351000,28.81
0.724608,0.608000,-0.095000,-0.810000,-3.008000,3.740000,-0.901000,28.91
0.725166,0.619000,-0.104000,-0.801000,-2.031000,11.099000,-0.351000,28.95
0.725799,0.611000,-0.100000,-0.773000,-2.351000,11.832000,0.427000,28.86
0.726279,0.619000,-0.084000,-0.794000,-1.160000,10.000000,0.290000,28.91
0.726713,0.610000,-0.098000,-0.772000,0.504000,10.015000,0.489000,28.81
0.727125,0.612000,-0.109000,-0.772000,-0.015000,8.702000,0.656000,28.95
0.727535,0.613000,-0.105000,-0.778000,1.130000,7.786000,0.519000,28.81
0.727944,0.632000,-0.108000,-0.771000,0.870000,5.344000,0.107000,28.91
0.728350,0.628000,-0.104000,-0.780000,0.580000,1.618000,0.168000,28.86
0.728770,0.630000,-0.099000,-0.769000,0.366000,0.260000,0.687000,28.95
0.729177,0.584000,-0.109000,-0.777000,2.290000,-0.565000,0.992000,28.91
0.729589,0.519000,-0.162000,-0.799000,-3.847000,8.519000,-0.382000,28.91
0.730005,0.553000,-0.141000,-0.783000,1.374000,10.763000,-3.038000,28.86
0.730417,0.589000,-0.145000,-0.747000,2.626000,7.176000,-4.275000,28.86
0.730829,0.592000,-0.132000,-0.791000,2.198000,11.282000,-5.496000,28.91
0.731248,0.618000,-0.141000,-0.789000,2.840000,12.794000,-5.786000,28.91
0.731664,0.654000,-0.123000,-0.870000,12.290000,-6.733000,-6.855000,28.86
0.732093,0.463000,-0.231000,-0.791000,31.786000,-39.740000,1.099000,28.86
0.732520,0.725000,-0.118000,-1.045000,20.702000,-4.687000,-8.870000,28.81
0.732935,0.736000,-0.179000,-0.527000,-8.351000,-13.099000,-4.443000,28.91
0.733357,0.830000,-0.003000,-0.783000,39.695000,-75.496000,-10.229000,28.86
0.733781,0.647000,-0.098000,-0.793000,8.366000,-20.748000,-3.847000,28.81
0.734205,0.464000,-0.077000,-0.720000,2.336000,0.626000,-3.282000,28.91
0.734615,0.815000,-0.107000,-0.940000,-5.908000,7.420000,-3.481000,28.86
0.735164,0.611000,-0.146000,-0.674000,3.832000,-26.855000,-2.366000,28.86
0.735805,0.630000,-0.103000,-0.795000,-4.397000,-3.710000,-2.183000,28.91
0.736338,0.608000,-0.127000,-0.782000,-1.695000,-1.206000,-2.870000,28.81
0.736827,0.608000,-0.126000,-0.783000,0.229000,-5.435000,-2.855000,28.86
0.737288,0.607000,-0.118000,-0.789000,-0.015000,-5.481000,-2.580000,28.95
0.737739,0.613000,-0.124000,-0.789000,-0.137000,-6.580000,-2.412000,28.91
0.738184,0.600000,-0.118000,-0.791000,0.153000,-5.832000,-2.473000,28.86
0.738638,0.597000,-0.109000,-0.793000,-0.947000,-4.229000,-2.061000,28.86
0.739078,0.594000,-0.116000,-0.791000,-1.893000,-2.840000,-1.908000,28.91
0.739522,0.597000,-0.107000,-0.791000,-2.718000,-1.969000,-2.336000,28.91
0.740030,0.606000,-0.111000,-0.791000,-2.901000,-0.916000,-2.321000,28.86
0.740488,0.598000,-0.113000,-0.796000,-3.649000,-0.321000,-2.305000,28.95
0.740972,0.601000,-0.117000,-0.804000,-4.198000,0.565000,-2.198000,28.91
0.741416,0.595000,-0.112000,-0.793000,-4.458000,1.130000,-2.153000,28.91
0.741839,0.595000,-0.122000,-0.798000,-4.763000,2.351000,-2.550000,28.86
0.742259,0.599000,-0.120000,-0.782000,-4.962000,4.290000,-2.962000,28.91
0.742674,0.596000,-0.109000,-0.790000,-5.618000,4.260000,-3.237000,28.91
0.743099,0.595000,-0.109000,-0.794000,-4.809000,3.115000,-3.298000,28.86
0.743548,0.589000,-0.117000,-0.791000,-4.916000,2.046000,-3.023000,28.86
0.743971,0.589000,-0.105000,-0.792000,-5.450000,1.725000,-3.053000,28.91
0.744391,0.588000,-0.113000,-0.798000,-5.145000,1.191000,-2.962000,28.81
0.744809,0.596000,-0.104000,-0.786000,-5.466000,0.870000,-2.870000,28.95
0.745362,0.592000,-0.096000,-0.802000,-5.527000,0.565000,-2.336000,28.95
0.745987,0.594000,-0.097000,-0.796000,-5.023000,0.015000,-2.214000,28.91
0.746431,0.600000,-0.088000,-0.800000,-4.504000,-0.489000,-1.756000,28.81
0.746860,0.581000,-0.099000,-0.797000,-4.305000,-0.763000,-1.282000,28.95
0.747292,0.582000,-0.096000,-0.795000,-3.740000,-1.359000,-0.870000,28.91
0.747716,0.583000,-0.103000,-0.796000,-2.580000,-2.321000,-0.855000,28.81
0.748141,0.585000,-0.100000,-0.787000,-1.969000,-2.641000,-0.550000,28.86
0.748558,0.579000,-0.107000,-0.794000,-1.038000,-2.840000,-0.809000,28.86
0.748978,0.578000,-0.103000,-0.809000,-0.641000,-2.534000,-0.702000,28.91
0.749395,0.584000,-0.104000,-0.803000,-1.252000,-2.153000,-0.565000,28.91
0.749822,0.577000,-0.097000,-0.788000,-1.237000,-1.084000,-0.550000,28.86
0.750239,0.581000,-0.094000,-0.800000,-1.405000,-0.641000,-0.168000,28.95
0.750647,0.590000,-0.097000,-0.805000,-2.107000,0.718000,0.107000,28.91
0.751074,0.583000,-0.096000,-0.797000,-2.198000,1.038000,0.122000,29.00
0.751484,0.585000,-0.095000,-0.807000,-3.069000,2.565000,0.366000,28.95
0.751889,0.581000,-0.104000,-0.802000,-3.435000,3.588000,0.611000,28.91
0.752303,0.584000,-0.103000,-0.801000,-3.130000,3.893000,0.885000,28.91
0.752714,0.589000,-0.100000,-0.799000,-2.779000,4.122000,1.084000,28.95
0.753127,0.588000,-0.101000,-0.807000,-2.076000,4.672000,1.344000,28.95
0.753534,0.583000,-0.105000,-0.803000,-1.786000,5.176000,1.405000,28.91
0.753949,0.586000,-0.111000,-0.801000,-1.298000,4.443000,1.359000,28.91
0.754370,0.578000,-0.106000,-0.800000,-1.344000,3.573000,1.008000,29.05
0.754778,0.578000,-0.117000,-0.805000,-1.725000,2.840000,0.916000,28.86
0.755246,0.585000,-0.103000,-0.801000,-1.664000,1.771000,0.733000,28.91
0.755679,0.582000,-0.110000,-0.797000,-1.618000,1.023000,0.580000,28.91
0.756290,0.581000,-0.109000,-0.788000,-1.344000,-0.061000,0.519000,28.86
0.757016,0.581000,-0.111000,-0.806000,-0.901000,-0.458000,0.366000,28.95
0.757525,0.582000,-0.111000,-0.804000,0.000000,-1.221000,0.397000,28.91
0.757949,0.573000,-0.113000,-0.799000,-0.595000,0.489000,0.137000,28.86
0.758367,0.576000,-0.110000,-0.809000,-0.489000,1.496000,0.076000,28.95
0.758805,0.574000,-0.111000,-0.797000,-0.733000,2.580000,-0.061000,28.81
0.759237,0.571000,-0.112000,-0.809000,-1.435000,3.237000,-0.580000,28.81
0.759660,0.573000,-0.117000,-0.793000,-1.740000,4.412000,-0.702000,28.95
0.760089,0.583000,-0.109000,-0.795000,-1.893000,4.611000,-0.641000,28.86
0.760510,0.582000,-0.102000,-0.804000,-2.397000,4.519000,-0.870000,28.91
0.760931,0.588000,-0.108000,-0.806000,-2.351000,4.336000,-0.870000,29.00
0.761343,0.585000,-0.113000,-0.800000,-2.595000,3.969000,-0.702000,28.95
0.761767,0.588000,-0.108000,-0.801000,-2.611000,3.374000,-0.885000,28.95
0.762190,0.586000,-0.118000,-0.802000,-2.626000,3.038000,-0.931000,28.91
0.762607,0.590000,-0.096000,-0.805000,-2.260000,3.069000,-0.626000,28.91
0.763023,0.586000,-0.096000,-0.807000,-2.092000,3.008000,-0.214000,28.95
0.763435,0.586000,-0.104000,-0.806000,-1.527000,3.252000,0.351000,28.81
0.763847,0.579000,-0.104000,-0.802000,-0.947000,3.084000,0.809000,28.91
0.764257,0.588000,-0.099000,-0.806000,-1.038000,3.252000,0.901000,28.86
0.764674,0.592000,-0.109000,-0.801000,-0.794000,3.420000,1.176000,28.95
0.765088,0.583000,-0.107000,-0.807000,-0.565000,2.962000,1.481000,28.91
0.765553,0.586000,-0.109000,-0.806000,-0.397000,3.511000,1.756000,29.00
0.765995,0.583000,-0.109000,-0.804000,0.061000,3.649000,2.000000,28.86
0.766421,0.583000,-0.123000,-0.800000,-0.580000,3.740000,1.740000,28.86
0.766947,0.576000,-0.109000,-0.791000,-1.038000,4.198000,1.527000,28.91
0.767561,0.580000,-0.118000,-0.799000,-2.092000,3.664000,1.176000,28.91
0.768088,0.585000,-0.114000,-0.802000,-2.550000,4.229000,0.947000,28.86
0.768600,0.581000,-0.117000,-0.796000,-3.191000,3.924000,0.626000,28.91
0.769049,0.596000,-0.115000,-0.797000,-4.015000,4.168000,0.305000,28.91
0.769471,0.593000,-0.110000,-0.808000,-4.092000,3.832000,0.580000,28.86
0.769900,0.578000,-0.115000,-0.797000,-4.382000,3.954000,0.168000,28.86
0.770314,0.579000,-0.115000,-0.802000,-4.107000,3.634000,0.290000,28.81
0.770731,0.580000,-0.101000,-0.805000,-4.168000,3.695000,0.641000,29.00
0.771147,0.584000,-0.109000,-0.799000,-3.695000,3.802000,0.779000,28.95
0.771563,0.580000,-0.103000,-0.803000,-3.832000,3.969000,0.718000,28.86
0.771984,0.582000,-0.102000,-0.800000,-3.145000,4.244000,0.931000,28.91
0.772397,0.582000,-0.105000,-0.807000,-3.008000,4.229000,1.237000,28.81
0.772815,0.581000,-0.107000,-0.796000,-2.427000,4.595000,1.267000,28.95
0.773279,0.579000,-0.117000,-0.813000,-2.076000,5.435000,1.313000,28.91
0.773900,0.584000,-0.109000,-0.803000,-1.740000,5.893000,1.267000,28.91
0.774345,0.582000,-0.112000,-0.795000,-1.847000,6.870000,1.282000,29.00
0.774775,0.572000,-0.119000,-0.790000,-2.992000,6.809000,0.611000,28.86
0.775190,0.571000,-0.123000,-0.781000,-3.496000,6.595000,0.107000,28.91
