# Gait Analysis Data - MPU6050 IMU
# Duration: 10 seconds
# Format: timestamp(s),ax(g),ay(g),az(g),gx(deg/s),gy(deg/s),gz(deg/s),temp(C)
# Note: Document sensor placement (ankle/wrist) separately
timestamp,ax,ay,az,gx,gy,gz,temp
0.000624,0.522000,-0.305000,-0.818000,-72.687000,88.672000,-26.107000,30.18
0.001274,0.623000,-0.177000,-0.883000,-39.252000,44.626000,-29.420000,30.22
0.001867,0.584000,-0.252000,-0.895000,-37.313000,40.916000,-30.534000,30.13
0.002440,0.619000,-0.184000,-0.884000,-37.008000,34.366000,-30.763000,30.18
0.003005,0.556000,-0.225000,-0.646000,-37.344000,38.519000,-29.710000,30.18
0.003578,0.635000,-0.136000,-0.812000,-29.802000,18.947000,-29.405000,30.18
0.004150,0.598000,-0.113000,-0.858000,-32.580000,15.771000,-28.168000,30.22
0.004725,0.581000,-0.123000,-0.861000,-30.916000,18.626000,-26.489000,30.22
0.005294,0.579000,-0.044000,-0.886000,-26.046000,18.443000,-24.137000,30.27
0.005847,0.549000,0.026000,-0.878000,-17.924000,22.046000,-19.053000,30.13
0.006407,0.549000,-0.124000,-0.865000,-12.748000,24.244000,-15.908000,30.32
0.006976,0.562000,-0.155000,-0.898000,-9.008000,24.626000,-14.763000,30.22
0.007699,0.585000,-0.102000,-0.908000,-1.038000,26.382000,-12.687000,30.27
0.008284,0.648000,-0.026000,-0.915000,8.763000,20.672000,-7.206000,30.27
0.008827,0.613000,0.011000,-0.852000,12.137000,6.382000,-1.389000,30.22
0.009669,0.581000,0.021000,-0.797000,10.290000,-7.618000,3.313000,30.32
0.010563,0.616000,-0.035000,-0.766000,9.634000,-17.344000,7.160000,30.22
0.011374,0.579000,-0.077000,-0.776000,8.244000,-23.664000,10.748000,30.27
0.012404,0.495000,-0.120000,-0.772000,5.542000,-25.695000,10.107000,30.18
0.013343,0.463000,0.005000,-0.858000,7.481000,-24.855000,8.656000,30.22
0.014050,0.368000,-0.222000,-0.840000,6.519000,-18.412000,8.137000,30.22
0.014871,0.419000,-0.096000,-0.867000,7.313000,-7.405000,4.962000,30.27
0.015626,0.470000,-0.233000,-0.899000,5.557000,10.611000,3.557000,30.18
0.016307,0.394000,-0.309000,-0.897000,-5.069000,27.924000,0.397000,30.18
0.016896,0.310000,-0.204000,-0.920000,-9.023000,44.931000,-9.267000,30.22
0.018077,0.399000,-0.178000,-0.898000,-7.084000,52.305000,-19.649000,30.22
0.018773,0.482000,-0.128000,-0.840000,-3.756000,53.130000,-25.084000,30.27
0.019362,0.550000,-0.039000,-0.842000,6.702000,56.504000,-28.046000,30.18
0.020306,0.567000,-0.110000,-0.849000,19.511000,56.168000,-30.855000,30.13
0.021145,0.512000,-0.110000,-0.866000,27.145000,55.893000,-34.168000,30.22
0.021765,0.493000,-0.082000,-0.850000,31.603000,56.504000,-38.779000,30.18
0.022344,0.560000,-0.064000,-0.848000,38.763000,58.656000,-44.550000,30.18
0.023107,0.614000,-0.134000,-0.867000,47.695000,55.282000,-49.679000,30.22
0.023915,0.643000,-0.189000,-0.905000,58.076000,51.588000,-55.313000,30.13
0.024595,0.623000,-0.253000,-0.957000,65.893000,44.947000,-60.336000,30.22
0.025237,0.522000,-0.377000,-0.979000,66.855000,33.130000,-63.908000,30.08
0.025828,0.297000,-0.628000,-1.168000,55.557000,16.687000,-63.099000,30.18
0.026522,-0.038000,-0.632000,-1.225000,38.916000,-9.969000,-57.679000,30.13
0.027225,-0.280000,-0.539000,-1.199000,31.496000,-30.656000,-57.176000,30.32
0.027919,-0.261000,-0.499000,-1.200000,32.748000,-42.718000,-62.718000,30.27
0.028728,-0.163000,-0.475000,-1.227000,42.672000,-47.008000,-62.489000,30.27
0.029424,-0.115000,-0.545000,-1.166000,52.076000,-61.557000,-59.328000,30.18
0.030087,-0.070000,-0.569000,-1.029000,58.672000,-69.450000,-55.176000,30.32
0.030675,0.035000,-0.539000,-0.948000,62.305000,-74.550000,-49.878000,30.22
0.031255,0.109000,-0.534000,-0.953000,64.656000,-77.237000,-42.794000,30.18
0.031830,0.176000,-0.472000,-0.970000,71.023000,-77.954000,-35.267000,30.13
0.032584,0.184000,-0.387000,-0.932000,78.427000,-78.840000,-28.733000,30.22
0.033211,0.191000,-0.290000,-0.844000,84.061000,-76.336000,-25.389000,30.13
0.033805,0.214000,-0.165000,-0.808000,90.427000,-69.405000,-25.527000,30.27
0.034368,0.235000,-0.074000,-0.770000,99.344000,-58.626000,-29.405000,30.27
0.034905,0.314000,0.004000,-0.789000,109.939000,-45.649000,-34.656000,30.13
0.035487,0.501000,-0.010000,-1.009000,121.115000,-33.969000,-39.542000,30.22
0.036113,0.611000,0.070000,-1.043000,125.771000,-40.214000,-44.595000,30.22
0.040641,0.555000,0.181000,-0.891000,128.641000,-50.855000,-54.718000,30.27
0.041221,1.334000,0.249000,-1.150000,102.840000,-58.656000,-98.214000,30.18
0.041713,0.758000,0.655000,-1.259000,80.977000,-68.565000,-128.550000,30.22
0.042222,1.194000,1.055000,-1.391000,124.351000,-88.244000,-142.092000,30.22
0.042713,1.061000,0.619000,-0.979000,165.038000,-111.679000,-144.672000,30.18
0.043193,1.040000,0.176000,-0.472000,156.000000,-113.130000,-145.985000,30.27
0.043671,0.978000,-0.074000,-0.387000,124.427000,-97.084000,-145.924000,30.18
0.044140,0.995000,-0.136000,-0.438000,106.366000,-82.427000,-135.115000,30.22
0.044735,0.880000,-0.136000,-0.193000,67.511000,-64.824000,-122.977000,30.22
0.045219,1.022000,0.123000,-0.176000,37.908000,-35.115000,-114.611000,30.18
0.045771,1.293000,0.421000,-0.540000,12.611000,-20.641000,-107.573000,30.27
0.046229,1.261000,0.760000,-0.699000,-5.420000,-19.328000,-94.733000,30.22
0.046689,0.991000,0.571000,-0.645000,-19.359000,-19.176000,-65.542000,30.22
0.047121,0.747000,-0.484000,-0.607000,-40.122000,-23.496000,-5.573000,30.27
0.047551,0.099000,0.031000,-0.777000,-52.366000,-30.458000,-8.183000,30.27
0.047977,0.389000,-0.172000,-1.148000,-48.870000,-9.863000,-16.031000,30.13
0.048408,0.583000,-0.356000,-0.918000,-40.198000,3.618000,-12.901000,30.22
0.048833,0.602000,-0.347000,-0.878000,-34.214000,3.115000,-9.115000,30.22
0.049277,0.488000,-0.253000,-0.988000,-27.817000,-0.870000,-7.588000,30.27
0.049702,0.425000,-0.233000,-0.918000,-27.664000,-4.534000,-6.870000,30.18
0.050147,0.440000,-0.284000,-0.850000,-25.496000,-5.740000,-8.183000,30.22
0.050569,0.504000,-0.303000,-0.891000,-27.603000,1.893000,-8.733000,30.22
0.051005,0.453000,-0.206000,-0.946000,-23.710000,6.382000,-8.763000,30.18
0.051562,0.427000,-0.185000,-0.934000,-19.237000,12.137000,-8.336000,30.22
0.052148,0.439000,-0.186000,-0.923000,-14.214000,11.145000,-7.191000,30.22
0.052646,0.457000,-0.213000,-0.910000,-10.931000,10.748000,-6.397000,30.22
0.053185,0.466000,-0.213000,-0.890000,-8.992000,12.611000,-5.603000,30.13
0.053652,0.468000,-0.198000,-0.896000,-6.534000,13.878000,-4.397000,30.18
0.054092,0.478000,-0.188000,-0.888000,-3.267000,12.962000,-2.550000,30.22
0.054548,0.468000,-0.194000,-0.892000,-1.618000,10.641000,-1.252000,30.22
0.054997,0.467000,-0.220000,-0.868000,-0.107000,8.565000,-0.397000,30.22
0.055429,0.461000,-0.226000,-0.848000,0.489000,9.328000,-0.305000,30.18
0.055864,0.474000,-0.219000,-0.864000,0.962000,9.282000,-0.427000,30.27
0.056306,0.463000,-0.213000,-0.868000,1.145000,6.565000,-0.168000,30.32
0.056736,0.481000,-0.219000,-0.875000,1.573000,8.214000,-0.092000,30.13
0.057162,0.471000,-0.223000,-0.871000,2.229000,7.847000,0.122000,30.18
0.057597,0.466000,-0.227000,-0.868000,2.076000,6.870000,-0.183000,30.18
0.058027,0.464000,-0.223000,-0.853000,1.008000,5.359000,-0.290000,30.27
0.058596,0.442000,-0.229000,-0.848000,-1.221000,4.000000,-1.145000,30.22
0.059184,0.443000,-0.228000,-0.851000,-3.237000,2.718000,-2.489000,30.22
0.059631,0.458000,-0.225000,-0.840000,-4.824000,3.160000,-3.527000,30.18
0.060079,0.453000,-0.211000,-0.845000,-7.221000,1.649000,-4.366000,30.18
0.060528,0.457000,-0.205000,-0.868000,-7.634000,3.099000,-4.885000,30.13
0.061041,0.451000,-0.207000,-0.859000,-7.740000,2.870000,-5.176000,30.22
0.061607,0.461000,-0.196000,-0.873000,-7.557000,3.023000,-5.206000,30.18
0.062210,0.470000,-0.192000,-0.869000,-6.992000,2.855000,-4.687000,30.08
0.062735,0.470000,-0.179000,-0.867000,-5.954000,2.595000,-3.878000,30.18
0.063252,0.476000,-0.175000,-0.880000,-4.748000,2.473000,-2.595000,30.22
0.063727,0.485000,-0.178000,-0.876000,-3.298000,1.786000,-1.344000,30.22
0.064195,0.472000,-0.176000,-0.862000,-2.183000,1.038000,-0.244000,30.27
0.064654,0.468000,-0.191000,-0.875000,-1.099000,1.160000,0.702000,30.18
0.065112,0.462000,-0.186000,-0.877000,-0.183000,1.176000,1.328000,30.22
0.065565,0.456000,-0.199000,-0.873000,-0.351000,0.931000,1.221000,30.13
0.066034,0.459000,-0.203000,-0.864000,-0.534000,1.053000,1.328000,30.27
0.066538,0.453000,-0.198000,-0.864000,-1.115000,1.649000,1.099000,30.18
0.066999,0.451000,-0.199000,-0.862000,-1.573000,2.000000,0.931000,30.18
0.067460,0.450000,-0.200000,-0.869000,-1.511000,1.679000,0.763000,30.22
0.067921,0.438000,-0.196000,-0.858000,-1.359000,2.107000,0.916000,30.13
0.068454,0.437000,-0.182000,-0.857000,-1.374000,2.962000,0.489000,30.27
0.068992,0.438000,-0.185000,-0.849000,-0.809000,3.374000,0.519000,30.22
0.069452,0.447000,-0.192000,-0.844000,-1.420000,3.817000,0.076000,30.32
0.069938,0.447000,-0.198000,-0.856000,-1.221000,3.374000,0.076000,30.22
0.070422,0.454000,-0.211000,-0.853000,-1.939000,3.435000,-0.534000,30.18
0.070877,0.456000,-0.207000,-0.856000,-1.908000,3.206000,-0.824000,30.18
0.071318,0.449000,-0.209000,-0.876000,-1.634000,3.191000,-0.916000,30.22
0.071763,0.445000,-0.203000,-0.867000,-1.863000,3.832000,-1.542000,30.13
0.072207,0.445000,-0.199000,-0.875000,-1.496000,4.275000,-1.481000,30.32
0.072651,0.441000,-0.202000,-0.865000,-1.084000,5.160000,-1.863000,30.27
0.073091,0.438000,-0.210000,-0.865000,-1.084000,5.573000,-1.908000,30.18
0.073527,0.449000,-0.186000,-0.865000,-0.275000,6.412000,-1.817000,30.13
0.073949,0.458000,-0.174000,-0.876000,1.511000,7.099000,-0.901000,30.22
0.074369,0.455000,-0.180000,-0.872000,3.557000,7.634000,0.229000,30.18
0.074782,0.463000,-0.196000,-0.870000,4.901000,7.771000,1.237000,30.18
0.075204,0.455000,-0.191000,-0.876000,4.916000,7.924000,1.649000,30.18
0.075625,0.464000,-0.223000,-0.856000,4.687000,8.382000,1.573000,30.22
0.076051,0.458000,-0.227000,-0.845000,3.649000,8.595000,1.191000,30.13
0.076476,0.471000,-0.223000,-0.860000,3.252000,8.565000,1.084000,30.18
0.076899,0.469000,-0.221000,-0.857000,2.611000,8.397000,0.947000,30.18
0.077332,0.454000,-0.224000,-0.862000,2.901000,8.153000,0.870000,30.22
0.077747,0.465000,-0.229000,-0.866000,2.336000,8.336000,0.550000,30.22
0.078172,0.476000,-0.226000,-0.854000,2.076000,8.443000,0.260000,30.27
0.078654,0.467000,-0.218000,-0.859000,1.893000,8.122000,0.092000,30.18
0.079136,0.469000,-0.234000,-0.857000,1.359000,7.771000,-0.046000,30.22
0.079596,0.467000,-0.223000,-0.860000,0.595000,7.618000,-0.336000,30.22
0.080030,0.471000,-0.218000,-0.864000,-0.198000,7.405000,-0.550000,30.22
0.080472,0.473000,-0.226000,-0.869000,-0.718000,6.885000,-0.397000,30.18
0.080923,0.478000,-0.221000,-0.854000,-1.160000,6.214000,-0.534000,30.18
0.081363,0.487000,-0.210000,-0.870000,-1.435000,5.695000,-0.580000,30.13
0.081794,0.495000,-0.205000,-0.865000,-1.527000,4.473000,-0.015000,30.22
0.082227,0.490000,-0.207000,-0.853000,-1.359000,3.374000,0.641000,30.27
0.082660,0.474000,-0.205000,-0.856000,-0.824000,2.366000,0.885000,30.22
0.083093,0.460000,-0.215000,-0.844000,-0.534000,2.092000,1.008000,30.22
0.083518,0.458000,-0.227000,-0.854000,-0.916000,2.718000,0.519000,30.22
0.083961,0.471000,-0.228000,-0.857000,-1.344000,2.916000,-0.031000,30.18
0.084394,0.469000,-0.230000,-0.859000,-1.603000,2.855000,-0.260000,30.18
0.084827,0.478000,-0.226000,-0.860000,-1.847000,2.458000,-0.656000,30.13
0.085259,0.478000,-0.234000,-0.865000,-2.366000,2.489000,-0.840000,30.22
0.085708,0.489000,-0.244000,-0.859000,-2.809000,2.672000,-1.099000,30.22
0.086162,0.489000,-0.229000,-0.869000,-3.588000,2.229000,-1.023000,30.18
0.086643,0.501000,-0.232000,-0.864000,-4.412000,1.099000,-0.794000,30.18
0.087126,0.505000,-0.216000,-0.871000,-4.840000,-0.412000,-0.336000,30.22
0.087591,0.501000,-0.232000,-0.867000,-5.740000,-2.534000,0.412000,30.22
0.088048,0.491000,-0.243000,-0.870000,-7.099000,-4.015000,0.275000,30.27
0.088621,0.456000,-0.255000,-0.851000,-9.069000,-4.885000,-0.763000,30.27
0.089079,0.440000,-0.253000,-0.836000,-11.740000,-4.336000,-2.336000,30.22
0.089521,0.432000,-0.212000,-0.836000,-12.122000,-2.947000,-3.573000,30.13
0.089970,0.441000,-0.204000,-0.856000,-12.321000,-0.687000,-3.878000,30.22
0.090415,0.448000,-0.198000,-0.854000,-11.817000,0.031000,-4.183000,30.18
0.090853,0.456000,-0.198000,-0.866000,-11.573000,-0.137000,-4.153000,30.18
0.091277,0.479000,-0.179000,-0.876000,-9.954000,-0.733000,-3.893000,30.13
0.091698,0.487000,-0.176000,-0.886000,-7.496000,-1.160000,-2.656000,30.13
0.092184,0.493000,-0.169000,-0.889000,-4.809000,-2.046000,-0.947000,30.08
0.092606,0.480000,-0.179000,-0.884000,-1.191000,-2.748000,0.779000,30.18
0.093018,0.472000,-0.181000,-0.885000,1.405000,-2.244000,2.366000,30.22
0.093432,0.475000,-0.189000,-0.888000,3.450000,-0.992000,3.664000,30.13
0.093846,0.475000,-0.190000,-0.892000,5.542000,-0.443000,4.840000,30.27
0.094277,0.472000,-0.187000,-0.877000,7.206000,-0.458000,5.725000,30.08
0.094704,0.482000,-0.202000,-0.876000,8.809000,1.099000,6.214000,30.18
0.095141,0.457000,-0.183000,-0.872000,10.275000,-0.076000,6.916000,30.13
0.095572,0.438000,-0.146000,-0.880000,10.931000,0.489000,6.702000,30.22
0.096005,0.432000,-0.169000,-0.869000,12.336000,2.672000,5.908000,30.18
0.096441,0.447000,-0.160000,-0.904000,14.824000,4.855000,4.473000,30.22
0.096870,0.436000,-0.131000,-0.893000,17.557000,5.908000,0.977000,30.13
0.097284,0.431000,-0.136000,-0.919000,21.771000,6.550000,-3.710000,30.13
0.097711,0.412000,-0.070000,-0.928000,27.008000,3.618000,-14.092000,30.18
0.098151,0.428000,-0.014000,-0.971000,34.229000,-3.267000,-29.649000,30.18
0.098679,0.391000,0.045000,-0.974000,43.099000,-12.321000,-51.939000,30.13
0.099275,0.391000,0.148000,-0.953000,51.634000,-23.359000,-80.198000,30.22
0.099745,0.438000,0.194000,-0.919000,57.695000,-32.824000,-111.481000,30.32
0.100213,0.481000,0.256000,-0.905000,61.282000,-42.687000,-143.191000,30.27
0.100670,0.565000,0.287000,-0.929000,67.420000,-50.168000,-173.588000,30.27
0.101160,0.591000,0.282000,-0.934000,73.817000,-61.740000,-200.626000,30.13
0.101633,0.724000,0.266000,-0.880000,76.626000,-67.756000,-225.237000,30.22
0.102061,0.743000,0.301000,-0.805000,79.084000,-74.290000,-247.069000,30.22
0.102501,0.675000,0.503000,-0.863000,117.252000,-75.252000,-273.267000,30.27
0.102935,0.857000,-0.199000,-0.708000,132.656000,-83.008000,-275.115000,30.08
0.103401,0.868000,-0.285000,-0.606000,112.779000,-87.359000,-291.450000,30.22
0.103857,0.813000,-0.303000,-0.549000,94.885000,-81.252000,-293.328000,30.13
0.104289,0.740000,-0.203000,-0.564000,87.481000,-76.305000,-292.748000,30.18
0.104725,0.694000,-0.145000,-0.621000,86.107000,-62.321000,-290.672000,30.27
0.105173,0.684000,-0.107000,-0.745000,92.611000,-54.046000,-287.176000,30.08
0.105630,0.696000,-0.129000,-0.786000,105.740000,-46.702000,-283.206000,30.13
0.106079,0.723000,-0.218000,-0.779000,125.374000,-46.779000,-274.275000,30.22
0.106520,0.721000,-0.378000,-0.718000,137.985000,-46.840000,-264.595000,30.27
0.106953,0.729000,-0.499000,-0.665000,144.672000,-44.565000,-253.389000,30.18
0.107396,0.706000,-0.564000,-0.700000,145.802000,-43.588000,-241.756000,30.13
0.107835,0.677000,-0.656000,-0.701000,139.328000,-46.229000,-228.931000,30.22
0.108272,0.590000,-0.620000,-0.701000,126.656000,-47.924000,-217.985000,30.18
0.108842,0.517000,-0.558000,-0.745000,118.794000,-46.046000,-207.374000,30.18
0.109500,0.460000,-0.527000,-0.820000,116.015000,-45.420000,-196.336000,30.27
0.109990,0.426000,-0.523000,-0.874000,110.702000,-44.672000,-184.947000,30.22
0.110472,0.372000,-0.493000,-0.845000,101.130000,-46.443000,-174.168000,30.22
0.110965,0.334000,-0.482000,-0.863000,87.786000,-49.359000,-162.870000,30.18
0.111449,0.340000,-0.396000,-0.884000,79.221000,-48.962000,-150.290000,30.18
0.111902,0.327000,-0.356000,-0.874000,70.595000,-47.008000,-136.366000,30.13
0.112354,0.348000,-0.308000,-0.863000,61.557000,-43.053000,-119.908000,30.22
0.112801,0.358000,-0.350000,-0.810000,51.573000,-38.336000,-99.206000,30.18
0.113258,0.388000,-0.433000,-0.794000,33.985000,-32.595000,-69.420000,30.27
0.113709,0.398000,-0.505000,-0.799000,13.435000,-26.168000,-28.809000,30.18
0.114145,0.415000,-0.440000,-0.848000,4.046000,-17.817000,13.008000,30.22
0.114581,0.263000,-0.111000,-0.883000,4.947000,-21.802000,10.305000,30.13
0.115027,0.315000,0.132000,-1.053000,10.366000,-15.710000,3.313000,30.08
0.115458,0.430000,-0.220000,-0.965000,15.771000,-8.504000,1.954000,30.22
0.115895,0.419000,-0.493000,-0.745000,14.260000,-10.870000,3.756000,30.22
0.116323,0.383000,-0.378000,-0.770000,8.779000,-6.321000,1.344000,30.13
0.116809,0.371000,-0.222000,-0.927000,4.137000,-5.053000,-0.733000,30.18
0.117238,0.358000,-0.187000,-0.917000,4.336000,0.534000,-1.527000,30.18
0.117657,0.444000,-0.233000,-0.885000,4.290000,6.489000,-1.267000,30.13
0.118086,0.432000,-0.262000,-0.865000,5.069000,9.282000,-0.565000,30.13
0.118614,0.418000,-0.231000,-0.904000,5.618000,6.840000,-1.206000,30.22
0.119245,0.374000,-0.245000,-0.834000,3.466000,2.580000,-2.122000,30.18
0.119703,0.389000,-0.263000,-0.828000,0.092000,2.519000,-3.115000,30.18
0.120137,0.398000,-0.186000,-0.882000,-1.359000,2.550000,-3.817000,30.13
0.120573,0.396000,-0.187000,-0.878000,-0.489000,3.832000,-4.687000,30.13
0.121005,0.426000,-0.219000,-0.873000,-0.214000,4.382000,-4.168000,30.22
0.121420,0.429000,-0.201000,-0.919000,0.656000,3.924000,-3.466000,30.18
0.121828,0.405000,-0.192000,-0.910000,2.137000,2.397000,-2.260000,30.27
0.122235,0.395000,-0.194000,-0.927000,3.802000,2.855000,-1.618000,30.22
0.122643,0.407000,-0.177000,-0.929000,6.198000,5.282000,-0.458000,30.13
0.123043,0.408000,-0.192000,-0.929000,9.542000,7.588000,0.489000,30.27
0.123453,0.425000,-0.210000,-0.907000,12.840000,8.015000,1.740000,30.27
0.123863,0.428000,-0.251000,-0.890000,13.359000,6.641000,2.046000,30.13
0.124292,0.437000,-0.276000,-0.854000,11.405000,5.481000,2.198000,30.13
0.124701,0.435000,-0.274000,-0.879000,9.679000,5.176000,2.305000,30.18
0.125107,0.416000,-0.260000,-0.883000,7.725000,4.916000,2.275000,30.18
0.125514,0.421000,-0.257000,-0.885000,5.985000,6.092000,2.214000,30.13
0.125929,0.420000,-0.234000,-0.914000,5.954000,5.863000,2.504000,30.13
0.126349,0.423000,-0.235000,-0.907000,7.649000,5.634000,3.267000,30.13
0.126764,0.417000,-0.236000,-0.892000,9.313000,5.069000,3.710000,30.18
0.127170,0.411000,-0.233000,-0.895000,10.382000,5.328000,4.290000,30.18
0.127576,0.409000,-0.250000,-0.883000,11.023000,6.229000,4.779000,30.22
0.127977,0.407000,-0.247000,-0.878000,9.206000,6.672000,4.779000,30.22
0.128405,0.416000,-0.254000,-0.868000,8.626000,6.962000,4.718000,30.27
0.129032,0.420000,-0.254000,-0.896000,8.321000,7.191000,4.687000,30.22
0.129518,0.403000,-0.252000,-0.863000,7.466000,7.634000,4.397000,30.22
0.129944,0.417000,-0.256000,-0.882000,6.534000,6.443000,4.092000,30.13
0.130380,0.406000,-0.252000,-0.861000,5.740000,6.550000,3.893000,30.18
0.130899,0.406000,-0.258000,-0.860000,4.656000,5.389000,3.695000,30.18
0.131384,0.397000,-0.257000,-0.856000,2.733000,5.099000,3.237000,30.13
0.131801,0.391000,-0.267000,-0.846000,0.305000,5.496000,2.397000,30.22
0.132232,0.404000,-0.264000,-0.863000,-1.298000,6.458000,1.679000,30.13
0.132648,0.405000,-0.257000,-0.873000,-1.328000,6.656000,1.481000,30.08
0.133058,0.416000,-0.258000,-0.878000,-0.977000,5.771000,1.374000,30.18
0.133467,0.410000,-0.264000,-0.861000,-0.901000,4.672000,1.298000,30.13
0.133875,0.418000,-0.265000,-0.863000,-0.198000,4.153000,1.130000,30.13
0.134288,0.422000,-0.261000,-0.868000,0.183000,4.000000,0.840000,30.18
0.134699,0.416000,-0.264000,-0.869000,0.076000,4.214000,0.595000,30.27
0.135108,0.417000,-0.249000,-0.871000,0.595000,3.756000,0.718000,30.18
0.135514,0.419000,-0.264000,-0.881000,1.176000,2.992000,0.779000,30.13
0.135934,0.433000,-0.259000,-0.895000,2.519000,3.038000,0.916000,30.22
0.136363,0.413000,-0.255000,-0.878000,3.481000,1.496000,1.298000,30.18
0.136785,0.406000,-0.287000,-0.878000,2.641000,3.053000,0.809000,30.18
0.137226,0.397000,-0.304000,-0.854000,0.031000,3.252000,-0.382000,30.13
0.137652,0.400000,-0.323000,-0.863000,-3.160000,4.473000,-2.031000,30.13
0.138063,0.410000,-0.307000,-0.845000,-6.855000,4.260000,-3.924000,30.18
0.138577,0.429000,-0.305000,-0.868000,-10.214000,5.527000,-5.023000,30.08
0.139182,0.419000,-0.284000,-0.842000,-12.748000,6.397000,-5.954000,30.18
0.139643,0.439000,-0.314000,-0.875000,-14.366000,2.550000,-7.115000,30.13
0.140101,0.448000,-0.308000,-0.863000,-15.573000,0.977000,-7.878000,30.32
0.140545,0.443000,-0.276000,-0.860000,-17.008000,-0.229000,-7.740000,30.27
0.141044,0.416000,-0.230000,-0.875000,-17.527000,-1.206000,-7.466000,30.18
0.141497,0.417000,-0.220000,-0.868000,-16.931000,-0.840000,-6.885000,30.22
0.141954,0.438000,-0.181000,-0.889000,-13.557000,-0.214000,-5.053000,30.22
0.142392,0.421000,-0.158000,-0.921000,-7.603000,-0.076000,-2.412000,30.27
0.142828,0.415000,-0.160000,-0.921000,-1.679000,0.565000,0.015000,30.13
0.143265,0.419000,-0.171000,-0.925000,4.336000,1.985000,2.565000,30.22
0.143699,0.426000,-0.162000,-0.927000,8.366000,3.832000,4.901000,30.13
0.144128,0.428000,-0.188000,-0.924000,12.519000,7.176000,7.176000,30.18
0.144552,0.413000,-0.206000,-0.907000,15.740000,8.840000,8.290000,30.18
0.144991,0.416000,-0.229000,-0.886000,19.084000,9.817000,8.489000,30.22
0.145429,0.408000,-0.280000,-0.856000,17.802000,8.855000,8.153000,30.22
0.145872,0.397000,-0.293000,-0.827000,14.916000,10.748000,6.641000,30.13
0.146282,0.397000,-0.304000,-0.824000,12.168000,8.931000,5.328000,30.27
0.146695,0.395000,-0.300000,-0.820000,9.023000,9.939000,3.786000,30.18
0.147119,0.403000,-0.301000,-0.826000,5.756000,10.336000,2.885000,30.13
0.147529,0.413000,-0.299000,-0.841000,4.397000,8.489000,2.336000,30.22
0.147935,0.429000,-0.286000,-0.858000,3.374000,6.763000,1.954000,30.22
0.148342,0.419000,-0.296000,-0.862000,2.809000,4.412000,1.649000,30.18
0.148885,0.416000,-0.284000,-0.856000,2.519000,3.221000,1.664000,30.18
0.149461,0.414000,-0.289000,-0.859000,1.695000,2.947000,1.405000,30.22
0.149928,0.420000,-0.270000,-0.879000,1.847000,3.527000,1.649000,30.22
0.150404,0.424000,-0.272000,-0.871000,2.550000,3.252000,1.863000,30.18
0.150870,0.413000,-0.268000,-0.869000,2.718000,2.748000,2.198000,30.18
0.151309,0.417000,-0.282000,-0.869000,2.931000,2.641000,1.954000,30.13
0.151733,0.415000,-0.295000,-0.856000,1.542000,2.977000,1.267000,30.13
0.152156,0.412000,-0.304000,-0.859000,0.275000,2.748000,0.427000,30.13
0.152574,0.405000,-0.309000,-0.843000,-2.000000,2.962000,-0.229000,30.18
0.152988,0.417000,-0.306000,-0.851000,-3.771000,3.176000,-1.145000,30.18
0.153427,0.422000,-0.310000,-0.862000,-5.282000,2.702000,-1.298000,30.13
0.153874,0.421000,-0.304000,-0.850000,-6.672000,1.863000,-1.893000,30.13
0.154303,0.425000,-0.302000,-0.843000,-7.954000,0.763000,-2.153000,30.18
0.154734,0.424000,-0.293000,-0.855000,-9.237000,0.992000,-2.443000,30.18
0.155171,0.421000,-0.285000,-0.858000,-9.878000,-0.351000,-2.580000,30.18
0.155592,0.423000,-0.291000,-0.867000,-10.580000,1.405000,-2.916000,30.22
0.156029,0.427000,-0.269000,-0.866000,-11.023000,0.885000,-3.344000,30.13
0.156464,0.442000,-0.277000,-0.877000,-10.641000,-0.718000,-3.023000,30.08
0.156891,0.426000,-0.258000,-0.873000,-10.626000,-0.840000,-3.573000,30.08
0.157315,0.416000,-0.243000,-0.856000,-10.779000,-1.603000,-4.824000,30.04
0.157737,0.419000,-0.233000,-0.852000,-10.916000,-2.214000,-7.664000,30.13
0.158164,0.403000,-0.189000,-0.873000,-11.435000,-1.435000,-12.351000,30.27
0.158679,0.393000,-0.092000,-0.878000,-9.099000,-0.779000,-24.565000,30.18
0.159268,0.369000,0.162000,-0.948000,-7.496000,-1.985000,-47.053000,30.27
0.159724,0.372000,0.453000,-0.979000,1.328000,-8.031000,-84.611000,30.22
0.160190,0.431000,0.697000,-1.021000,14.046000,-20.260000,-138.412000,30.22
0.160652,0.518000,0.850000,-1.035000,35.145000,-38.305000,-199.130000,30.27
0.161160,0.613000,0.756000,-1.039000,63.420000,-58.595000,-257.191000,30.13
0.161638,0.810000,0.198000,-0.891000,85.160000,-59.298000,-290.153000,30.13
0.162100,0.886000,-0.141000,-0.789000,95.252000,-68.275000,-306.794000,30.13
0.162546,0.917000,-0.393000,-0.688000,105.649000,-65.725000,-305.435000,30.18
0.163092,0.891000,-0.611000,-0.641000,117.069000,-65.405000,-292.595000,30.18
0.163759,0.827000,-0.871000,-0.543000,119.618000,-62.107000,-276.504000,30.13
0.164289,0.791000,-1.069000,-0.574000,109.527000,-59.496000,-257.420000,30.13
0.164762,0.650000,-0.997000,-0.567000,86.153000,-46.336000,-241.069000,30.13
0.165216,0.613000,-0.830000,-0.626000,67.145000,-45.588000,-223.359000,30.18
0.165644,0.515000,-0.560000,-0.860000,67.695000,-33.252000,-206.794000,30.18
0.166121,0.446000,-0.420000,-0.827000,71.298000,-25.069000,-196.534000,30.22
0.166584,0.386000,-0.370000,-0.819000,66.870000,-18.183000,-186.687000,30.22
0.167069,0.411000,-0.312000,-0.888000,68.412000,-7.359000,-178.687000,30.18
0.167518,0.400000,-0.270000,-0.881000,71.145000,-9.221000,-169.725000,30.08
0.167962,0.405000,-0.223000,-0.872000,75.420000,-10.931000,-160.595000,30.27
0.168422,0.396000,-0.195000,-0.853000,82.916000,-13.634000,-152.779000,30.22
0.168952,0.378000,-0.180000,-0.858000,91.664000,-13.420000,-147.588000,30.13
0.169501,0.382000,-0.172000,-0.898000,98.366000,-9.634000,-143.863000,30.18
0.170030,0.372000,-0.194000,-0.889000,101.969000,-7.832000,-139.924000,30.27
0.170512,0.389000,-0.204000,-0.930000,104.763000,-9.405000,-135.008000,30.22
0.170973,0.377000,-0.219000,-0.958000,107.038000,-16.595000,-128.947000,30.22
0.171415,0.383000,-0.326000,-0.957000,97.435000,-28.641000,-120.260000,30.18
0.171851,0.356000,-0.400000,-0.886000,78.107000,-41.328000,-108.733000,30.18
0.172284,0.319000,-0.355000,-0.891000,59.221000,-47.359000,-93.344000,30.22
0.172730,0.355000,-0.275000,-0.915000,45.847000,-46.977000,-75.893000,30.22
0.173162,0.405000,-0.226000,-0.892000,31.939000,-49.160000,-57.878000,30.22
0.173592,0.504000,-0.232000,-0.891000,18.137000,-46.763000,-36.641000,30.18
0.174012,0.513000,-0.205000,-0.864000,9.908000,-48.718000,-13.511000,30.27
0.174431,0.527000,-0.180000,-0.907000,4.351000,-52.092000,6.443000,30.13
0.174851,0.332000,0.052000,-0.836000,10.947000,-51.740000,13.252000,30.22
0.175274,0.278000,-0.037000,-1.071000,15.237000,-56.336000,11.221000,30.18
0.175691,0.335000,-0.278000,-0.858000,8.061000,-53.817000,3.130000,30.18
0.176152,0.239000,-0.565000,-0.734000,9.908000,-35.603000,1.359000,30.13
0.176590,0.203000,-0.559000,-0.698000,-5.420000,-20.519000,-4.244000,30.22
0.177015,0.273000,-0.299000,-0.902000,-12.321000,1.878000,-8.321000,30.13
0.177446,0.383000,-0.008000,-1.039000,-8.748000,18.641000,-7.160000,30.18
0.177864,0.428000,-0.044000,-0.933000,-0.412000,22.092000,-4.305000,30.22
0.178305,0.487000,-0.240000,-0.918000,4.641000,13.634000,-0.137000,30.22
0.178786,0.409000,-0.283000,-0.897000,6.092000,7.969000,1.160000,30.13
0.179251,0.373000,-0.300000,-0.867000,4.076000,2.092000,-0.519000,30.08
0.179686,0.381000,-0.300000,-0.841000,-0.321000,-0.901000,-2.779000,30.18
0.180111,0.381000,-0.281000,-0.854000,-4.962000,-0.092000,-4.779000,30.13
0.180536,0.382000,-0.199000,-0.854000,-7.618000,-1.252000,-5.664000,30.22
0.180968,0.410000,-0.192000,-0.907000,-8.214000,6.824000,-4.794000,30.18
0.181400,0.410000,-0.192000,-0.883000,-6.931000,10.611000,-3.557000,30.18
0.181822,0.396000,-0.194000,-0.901000,-5.267000,7.985000,-2.519000,30.18
0.182263,0.388000,-0.186000,-0.919000,-1.695000,5.313000,-1.359000,30.13
0.182711,0.393000,-0.200000,-0.914000,1.389000,2.672000,-0.397000,30.13
0.183153,0.385000,-0.178000,-0.921000,4.046000,3.786000,0.290000,30.18
0.183694,0.389000,-0.179000,-0.914000,5.725000,6.580000,1.420000,30.18
0.184301,0.392000,-0.186000,-0.922000,7.160000,9.863000,2.321000,30.22
0.184758,0.399000,-0.203000,-0.918000,8.366000,10.763000,2.931000,30.13
0.185198,0.379000,-0.219000,-0.896000,9.084000,9.969000,3.145000,30.08
0.185647,0.384000,-0.222000,-0.884000,9.038000,9.160000,3.053000,30.18
0.186109,0.400000,-0.230000,-0.883000,8.489000,9.145000,2.809000,30.18
0.186575,0.391000,-0.232000,-0.877000,7.893000,9.099000,2.275000,30.13
0.187013,0.404000,-0.235000,-0.878000,7.206000,10.244000,2.031000,30.13
0.187443,0.398000,-0.230000,-0.876000,7.847000,11.206000,1.893000,30.18
0.187884,0.415000,-0.235000,-0.884000,7.954000,10.962000,2.290000,30.18
0.188416,0.400000,-0.233000,-0.874000,8.702000,9.878000,2.550000,30.22
0.188911,0.395000,-0.227000,-0.885000,9.252000,9.038000,2.489000,30.13
0.189340,0.397000,-0.242000,-0.883000,8.870000,8.977000,2.305000,30.13
0.189773,0.396000,-0.222000,-0.874000,8.763000,9.359000,1.786000,30.18
0.190210,0.398000,-0.207000,-0.890000,10.122000,9.664000,2.550000,30.18
0.190686,0.406000,-0.210000,-0.891000,11.466000,10.275000,2.977000,30.32
0.191204,0.406000,-0.223000,-0.897000,12.779000,9.038000,3.893000,30.13
0.191653,0.416000,-0.235000,-0.895000,13.878000,8.916000,4.687000,30.18
0.192073,0.421000,-0.248000,-0.889000,14.305000,7.985000,5.298000,30.27
0.192527,0.428000,-0.260000,-0.885000,14.336000,7.588000,5.344000,30.08
0.192942,0.429000,-0.284000,-0.876000,12.962000,6.504000,5.237000,30.13
0.193361,0.419000,-0.303000,-0.856000,10.427000,4.992000,4.336000,30.13
0.193774,0.416000,-0.300000,-0.870000,7.679000,3.939000,3.115000,30.18
0.194189,0.416000,-0.296000,-0.855000,4.595000,2.977000,1.710000,30.13
0.194598,0.403000,-0.293000,-0.847000,1.985000,2.015000,0.198000,30.13
0.195047,0.397000,-0.288000,-0.858000,-0.214000,1.374000,-1.374000,30.22
0.195499,0.400000,-0.276000,-0.870000,-1.298000,2.000000,-2.611000,30.18
0.195946,0.401000,-0.285000,-0.854000,-2.809000,2.244000,-3.221000,30.18
0.196383,0.392000,-0.273000,-0.872000,-3.267000,3.359000,-3.527000,30.22
0.196824,0.385000,-0.265000,-0.883000,-3.756000,4.473000,-3.695000,30.13
0.197283,0.406000,-0.250000,-0.886000,-3.496000,4.779000,-3.969000,30.13
0.197719,0.407000,-0.262000,-0.884000,-3.878000,4.473000,-3.924000,30.18
0.198147,0.418000,-0.264000,-0.877000,-4.702000,3.542000,-3.908000,30.18
0.198658,0.408000,-0.260000,-0.870000,-7.206000,2.260000,-4.290000,30.22
0.199195,0.400000,-0.279000,-0.859000,-11.023000,1.740000,-4.840000,30.22
0.199647,0.409000,-0.275000,-0.863000,-15.069000,0.580000,-6.504000,30.18
0.200102,0.405000,-0.277000,-0.852000,-18.611000,-0.580000,-8.000000,30.27
0.200554,0.409000,-0.275000,-0.870000,-20.962000,-1.481000,-9.237000,30.18
0.201096,0.413000,-0.262000,-0.875000,-21.267000,-3.466000,-10.260000,30.13
0.201627,0.420000,-0.255000,-0.870000,-20.504000,-3.878000,-10.458000,30.22
0.202147,0.422000,-0.240000,-0.888000,-18.718000,-3.786000,-10.198000,30.18
0.202675,0.414000,-0.222000,-0.893000,-16.076000,-2.855000,-8.656000,30.18
0.203153,0.414000,-0.203000,-0.897000,-13.450000,-2.458000,-7.038000,30.22
0.203600,0.411000,-0.211000,-0.898000,-10.763000,-1.985000,-5.542000,30.22
0.204049,0.412000,-0.205000,-0.906000,-8.290000,-1.374000,-4.092000,30.18
0.204491,0.413000,-0.208000,-0.894000,-6.260000,-1.160000,-2.687000,30.18
0.204917,0.411000,-0.216000,-0.886000,-4.427000,-0.672000,-1.664000,30.27
0.205346,0.407000,-0.213000,-0.889000,-3.191000,-0.718000,-0.870000,30.22
0.205786,0.408000,-0.223000,-0.880000,-2.473000,-0.916000,-0.611000,30.13
0.206222,0.407000,-0.226000,-0.886000,-2.779000,-1.145000,-0.351000,30.18
0.206667,0.403000,-0.234000,-0.872000,-4.580000,-1.863000,-0.565000,30.18
0.207104,0.395000,-0.242000,-0.869000,-6.244000,-2.183000,-1.695000,30.13
0.207539,0.399000,-0.259000,-0.873000,-7.878000,-2.489000,-2.443000,30.22
0.207975,0.405000,-0.258000,-0.883000,-9.588000,-2.779000,-3.267000,30.27
0.208496,0.398000,-0.249000,-0.882000,-10.916000,-2.855000,-3.847000,30.18
0.209052,0.400000,-0.245000,-0.899000,-11.832000,-2.473000,-4.244000,30.08
0.209539,0.404000,-0.242000,-0.889000,-12.763000,-2.046000,-4.794000,30.22
0.209999,0.404000,-0.221000,-0.903000,-12.763000,-1.389000,-4.718000,30.22
0.210456,0.396000,-0.226000,-0.891000,-12.794000,-0.748000,-4.809000,30.18
0.210952,0.406000,-0.234000,-0.893000,-13.206000,-0.550000,-5.206000,30.04
0.211421,0.403000,-0.216000,-0.897000,-12.840000,-0.626000,-4.840000,30.13
0.211873,0.406000,-0.222000,-0.900000,-12.489000,-0.168000,-4.626000,30.13
0.212323,0.407000,-0.223000,-0.904000,-12.382000,-0.290000,-4.275000,30.18
0.212761,0.409000,-0.223000,-0.898000,-12.824000,-0.122000,-3.832000,30.18
0.213183,0.433000,-0.219000,-0.919000,-12.351000,0.336000,-2.901000,30.22
0.213624,0.412000,-0.232000,-0.908000,-12.366000,0.229000,-2.076000,30.13
0.214040,0.418000,-0.223000,-0.901000,-12.504000,0.092000,-1.634000,30.22
0.214476,0.425000,-0.215000,-0.902000,-11.985000,-0.046000,-0.748000,30.18
0.214899,0.429000,-0.210000,-0.910000,-11.008000,-0.214000,0.733000,30.18
0.215316,0.422000,-0.202000,-0.912000,-9.466000,-0.321000,2.550000,30.13
0.215733,0.423000,-0.190000,-0.923000,-7.328000,-0.763000,4.015000,30.22
0.216169,0.410000,-0.172000,-0.933000,-4.137000,-1.282000,6.015000,30.27
0.216615,0.383000,-0.184000,-0.900000,-0.901000,-0.595000,7.069000,30.18
0.217040,0.389000,-0.177000,-0.935000,1.557000,-0.092000,7.863000,30.22
0.217448,0.381000,-0.167000,-0.915000,4.565000,3.511000,7.771000,30.13
0.217891,0.391000,-0.163000,-0.960000,6.550000,8.366000,7.389000,30.08
0.218303,0.423000,-0.162000,-0.934000,10.779000,11.237000,7.618000,30.08
0.218711,0.379000,-0.186000,-0.932000,12.779000,9.115000,7.130000,30.18
0.219137,0.379000,-0.188000,-0.901000,12.015000,9.939000,6.031000,30.22
0.219553,0.355000,-0.186000,-0.877000,11.740000,6.489000,3.267000,30.13
0.219988,0.376000,-0.208000,-0.893000,8.229000,5.939000,-1.023000,30.18
0.220429,0.449000,-0.253000,-0.948000,-0.061000,-0.046000,-7.008000,30.08
0.220965,0.491000,-0.297000,-0.912000,-7.939000,-1.802000,-7.817000,30.22
0.221584,0.439000,-0.278000,-0.856000,-9.939000,-7.557000,-6.092000,30.13
0.222109,0.477000,-0.197000,-0.764000,-12.534000,-7.405000,-7.298000,30.18
0.222552,0.843000,0.004000,-0.380000,5.038000,20.015000,-7.634000,30.18
0.222975,0.566000,-0.327000,-0.252000,-5.618000,24.305000,-1.160000,30.18
0.223391,0.973000,-0.316000,-0.790000,-12.641000,38.534000,2.885000,30.13
0.223815,0.797000,-0.231000,-0.772000,-10.580000,42.092000,13.771000,30.22
0.224235,0.820000,-0.129000,-0.838000,-0.641000,40.290000,20.122000,30.18
0.224649,0.729000,-0.135000,-0.816000,5.573000,29.588000,23.710000,30.13
0.225056,0.677000,-0.105000,-0.819000,4.901000,19.832000,24.061000,30.22
0.225469,0.669000,-0.115000,-0.863000,2.763000,16.275000,22.260000,30.04
0.225900,0.690000,-0.098000,-0.950000,2.855000,12.626000,21.420000,30.18
0.226316,0.680000,-0.071000,-0.953000,-0.046000,6.046000,20.305000,30.08
0.226731,0.605000,-0.065000,-0.894000,-8.076000,-5.115000,16.153000,30.13
0.227173,0.481000,-0.012000,-0.775000,-17.115000,-13.557000,7.985000,30.13
0.227596,0.418000,0.009000,-0.757000,-20.534000,-12.397000,-1.634000,30.22
0.228030,0.428000,0.014000,-0.789000,-18.931000,-5.969000,-9.115000,30.08
0.228503,0.431000,-0.043000,-0.814000,-16.275000,-1.237000,-13.985000,30.18
0.228950,0.387000,-0.103000,-0.769000,-16.122000,1.908000,-17.176000,30.13
0.229389,0.359000,-0.150000,-0.767000,-15.756000,4.305000,-19.618000,30.13
0.229824,0.345000,-0.196000,-0.765000,-15.221000,8.779000,-20.382000,30.18
0.230275,0.332000,-0.279000,-0.809000,-15.191000,14.947000,-19.557000,30.08
0.230802,0.345000,-0.387000,-0.923000,-12.214000,21.557000,-15.466000,30.18
0.231443,0.375000,-0.430000,-0.998000,-6.580000,23.115000,-6.641000,30.13
0.231928,0.333000,-0.505000,-0.963000,-1.908000,20.870000,4.260000,30.13
0.232369,0.268000,-0.548000,-0.917000,0.611000,18.397000,14.977000,30.18
0.232798,0.212000,-0.520000,-0.852000,2.992000,21.099000,24.504000,30.18
0.233232,0.168000,-0.500000,-1.019000,7.176000,22.076000,29.176000,30.22
0.233668,0.028000,-0.416000,-1.058000,5.908000,16.107000,27.710000,30.13
0.234118,-0.106000,-0.303000,-1.105000,5.756000,5.954000,20.275000,30.18
0.234554,-0.286000,-0.138000,-1.119000,5.618000,-9.481000,8.153000,30.27
0.234999,-0.462000,0.016000,-1.225000,1.344000,-26.947000,-10.962000,30.18
0.235450,-0.416000,0.264000,-1.175000,-14.626000,-39.618000,-32.641000,30.13
0.235902,-0.189000,0.431000,-0.824000,-16.061000,-28.443000,-38.412000,30.22
0.236403,0.543000,-0.238000,-1.192000,-34.382000,-10.595000,-30.427000,30.08
0.236892,0.468000,0.052000,-1.046000,-29.145000,10.198000,-20.214000,30.18
0.237415,0.545000,-0.194000,-0.883000,-19.527000,11.725000,-13.893000,30.22
0.237891,0.451000,-0.461000,-0.886000,-12.748000,4.000000,-11.786000,30.13
0.238324,0.512000,-0.317000,-1.026000,-12.183000,6.809000,-12.321000,30.13
0.238742,0.516000,-0.218000,-0.936000,-7.588000,8.840000,-9.710000,30.08
0.239160,0.456000,-0.165000,-0.884000,-4.779000,8.931000,-6.748000,30.08
0.239577,0.456000,-0.151000,-0.933000,-0.977000,9.679000,-4.427000,30.13
0.239996,0.513000,-0.246000,-0.893000,0.885000,7.878000,-3.099000,30.22
0.240405,0.488000,-0.250000,-0.865000,0.061000,4.656000,-3.954000,30.08
0.240913,0.479000,-0.216000,-0.872000,-1.542000,1.221000,-4.565000,30.08
0.241497,0.454000,-0.178000,-0.879000,-3.405000,-2.443000,-4.000000,30.22
0.241992,0.429000,-0.154000,-0.890000,-4.092000,-2.458000,-3.725000,30.22
0.242441,0.422000,-0.185000,-0.903000,-4.275000,-2.550000,-4.153000,30.22
0.242911,0.419000,-0.207000,-0.913000,-4.733000,-1.939000,-4.992000,30.18
0.243339,0.414000,-0.205000,-0.899000,-5.053000,0.504000,-5.466000,30.13
0.243757,0.411000,-0.186000,-0.905000,-5.298000,3.573000,-5.344000,30.22
0.244199,0.408000,-0.145000,-0.916000,-4.824000,5.557000,-4.092000,30.13
0.244630,0.396000,-0.164000,-0.915000,-4.534000,6.733000,-3.496000,30.18
0.245058,0.410000,-0.164000,-0.904000,-4.290000,7.176000,-3.176000,30.18
0.245475,0.416000,-0.170000,-0.902000,-4.122000,7.939000,-2.962000,30.13
0.245907,0.417000,-0.195000,-0.894000,-5.130000,9.038000,-3.313000,30.13
0.246317,0.440000,-0.191000,-0.889000,-6.779000,9.435000,-3.588000,30.13
0.246750,0.427000,-0.197000,-0.888000,-11.237000,15.649000,-3.603000,30.18
0.247193,0.450000,-0.178000,-0.897000,-9.542000,7.053000,-4.656000,30.18
0.247627,0.456000,-0.158000,-0.885000,-8.076000,3.344000,-3.954000,30.32
0.248049,0.443000,-0.135000,-0.897000,-6.885000,1.573000,-3.221000,30.13
0.248465,0.433000,-0.131000,-0.899000,-5.618000,0.198000,-2.107000,30.18
0.248886,0.430000,-0.135000,-0.896000,-4.275000,0.076000,-1.344000,30.18
0.249311,0.423000,-0.125000,-0.897000,-2.916000,0.137000,-0.153000,30.08
0.249720,0.432000,-0.136000,-0.902000,-1.710000,0.229000,0.763000,30.22
0.250144,0.428000,-0.143000,-0.894000,-0.672000,0.702000,1.435000,30.13
0.250553,0.429000,-0.155000,-0.907000,0.061000,0.229000,1.740000,30.18
0.251081,0.436000,-0.150000,-0.902000,0.458000,0.137000,2.336000,30.27
0.251666,0.440000,-0.133000,-0.904000,1.542000,0.122000,3.588000,30.13
0.252165,0.432000,-0.158000,-0.913000,2.183000,-0.275000,4.214000,30.13
0.252641,0.432000,-0.172000,-0.901000,2.779000,-0.198000,4.931000,30.18
0.253084,0.434000,-0.157000,-0.901000,3.252000,0.046000,5.481000,30.27
0.253591,0.419000,-0.160000,-0.898000,3.679000,0.137000,6.015000,30.08
0.254059,0.405000,-0.163000,-0.899000,3.847000,0.733000,6.000000,30.22
0.254487,0.398000,-0.181000,-0.881000,3.740000,1.466000,5.542000,30.13
0.254902,0.399000,-0.185000,-0.885000,2.626000,2.504000,4.382000,30.27
0.255311,0.404000,-0.181000,-0.890000,1.084000,3.481000,3.618000,30.08
0.255723,0.405000,-0.173000,-0.885000,0.412000,3.603000,2.977000,30.13
0.256148,0.406000,-0.190000,-0.878000,-0.718000,3.908000,1.924000,30.22
0.256580,0.403000,-0.197000,-0.877000,-2.122000,3.695000,0.901000,30.08
0.257013,0.420000,-0.192000,-0.882000,-3.160000,3.695000,-0.366000,30.18
0.257459,0.424000,-0.193000,-0.878000,-4.870000,3.282000,-1.282000,30.22
0.257905,0.417000,-0.188000,-0.878000,-5.985000,2.916000,-2.290000,30.32
0.258353,0.400000,-0.193000,-0.877000,-6.931000,2.855000,-3.328000,30.13
0.258778,0.405000,-0.182000,-0.875000,-7.802000,3.115000,-4.336000,30.18
0.259218,0.406000,-0.179000,-0.871000,-8.260000,3.893000,-5.405000,30.13
0.259647,0.407000,-0.167000,-0.886000,-8.183000,5.130000,-5.817000,30.13
0.260085,0.420000,-0.159000,-0.896000,-7.786000,5.863000,-5.863000,30.13
0.260516,0.425000,-0.141000,-0.906000,-6.641000,5.374000,-4.809000,30.08
0.261072,0.431000,-0.130000,-0.904000,-4.977000,4.626000,-3.756000,30.27
0.261525,0.432000,-0.139000,-0.902000,-3.863000,4.351000,-2.443000,30.22
0.262020,0.426000,-0.136000,-0.897000,-2.412000,3.863000,-1.786000,30.13
0.262508,0.416000,-0.133000,-0.887000,-1.557000,4.275000,-0.916000,30.13
0.262952,0.423000,-0.151000,-0.896000,-1.359000,4.687000,-0.809000,30.18
0.263379,0.432000,-0.156000,-0.894000,-1.023000,4.962000,-0.550000,30.27
0.263801,0.424000,-0.157000,-0.893000,-0.504000,4.992000,-0.275000,30.13
0.264226,0.421000,-0.162000,-0.890000,-0.840000,4.611000,-0.198000,30.13
0.264662,0.420000,-0.172000,-0.891000,-0.809000,4.000000,-0.336000,30.18
0.265097,0.420000,-0.170000,-0.882000,-1.511000,4.000000,-0.718000,30.18
0.265525,0.413000,-0.173000,-0.900000,-2.198000,4.458000,-1.145000,30.22
0.265965,0.431000,-0.162000,-0.885000,-2.550000,4.031000,-1.298000,30.13
0.266395,0.423000,-0.154000,-0.892000,-2.290000,3.618000,-1.298000,30.13
0.266825,0.424000,-0.155000,-0.886000,-1.939000,3.557000,-1.145000,30.18
0.267249,0.421000,-0.147000,-0.893000,-1.557000,3.282000,-0.870000,30.18
0.267788,0.425000,-0.152000,-0.887000,-1.664000,3.191000,-0.840000,30.13
0.268252,0.423000,-0.165000,-0.892000,-2.122000,3.023000,-0.840000,30.13
0.268694,0.419000,-0.162000,-0.902000,-2.229000,3.130000,-1.176000,30.18
0.269116,0.440000,-0.151000,-0.903000,-2.046000,2.611000,-0.977000,30.08
0.269549,0.457000,-0.131000,-0.912000,-0.565000,2.656000,-0.382000,30.08
0.269993,0.433000,-0.154000,-0.894000,1.511000,1.954000,0.672000,30.22
0.270428,0.463000,-0.114000,-0.915000,4.183000,1.756000,2.168000,30.13
0.270851,0.452000,-0.119000,-0.895000,7.786000,0.977000,4.275000,30.18
0.271284,0.505000,-0.098000,-0.938000,12.305000,0.168000,7.038000,30.18
0.271714,0.510000,-0.094000,-0.932000,21.649000,-3.389000,11.176000,30.13
0.272150,0.495000,-0.068000,-0.919000,30.580000,-7.221000,15.832000,30.13
0.272601,0.493000,-0.079000,-0.937000,41.298000,-12.351000,21.252000,30.22
0.273052,0.471000,-0.162000,-0.936000,48.672000,-12.763000,25.099000,30.18
0.273505,0.386000,-0.246000,-0.930000,53.985000,-13.435000,24.534000,30.27
0.273939,0.397000,-0.265000,-0.970000,55.176000,-14.336000,22.550000,30.22
0.278864,0.359000,-0.237000,-0.874000,51.756000,-16.794000,21.954000,30.22
0.288810,0.369000,-0.249000,-0.889000,47.450000,-11.344000,21.176000,30.08
0.298690,0.349000,-0.261000,-0.898000,43.160000,-7.634000,19.313000,30.08
0.308715,0.350000,-0.329000,-0.808000,35.939000,-2.382000,16.412000,30.13
0.318773,0.373000,-0.351000,-0.797000,29.679000,1.771000,14.840000,30.13
0.328756,0.417000,-0.352000,-0.895000,23.969000,7.328000,13.771000,30.22
0.338791,0.374000,-0.317000,-0.885000,17.557000,9.282000,11.939000,30.18
0.348742,0.283000,-0.428000,-0.847000,7.863000,10.412000,7.298000,30.13
0.358843,0.302000,-0.613000,-0.891000,-2.107000,12.260000,0.947000,30.22
0.368859,0.234000,-0.616000,-0.808000,-15.176000,15.679000,-5.298000,30.13
0.378887,0.105000,-0.590000,-0.789000,-25.695000,24.183000,-14.550000,30.18
0.389009,0.033000,-0.502000,-0.765000,-39.969000,41.435000,-26.168000,30.18
0.399028,0.036000,-0.516000,-0.688000,-54.473000,82.809000,-49.969000,30.13
0.409121,0.235000,-0.450000,-1.174000,-27.710000,118.321000,-75.664000,30.22
0.419115,-0.374000,-1.309000,-1.802000,-20.031000,94.412000,-40.458000,30.08
0.429145,0.343000,-1.933000,-1.890000,-15.679000,42.489000,-11.939000,30.18
0.438964,-0.685000,-1.618000,-1.263000,-32.260000,17.832000,18.626000,30.08
0.449241,-0.766000,-0.921000,-1.039000,-19.344000,14.076000,27.053000,30.13
0.459134,-0.909000,-0.599000,-1.062000,6.702000,10.260000,20.931000,30.13
0.469133,-0.818000,-0.649000,-1.055000,15.206000,10.748000,8.779000,30.08
0.479124,-0.809000,-0.540000,-1.012000,13.435000,-1.618000,-4.962000,30.08
0.489048,-0.711000,-0.418000,-1.052000,18.962000,-21.893000,-17.115000,30.13
0.499275,-0.548000,-0.447000,-1.112000,25.817000,-39.603000,-21.634000,30.22
0.508986,-0.376000,-0.547000,-1.035000,27.252000,-54.214000,-16.962000,30.18
0.519431,-0.229000,-0.588000,-0.950000,23.817000,-56.336000,-7.908000,30.18
0.530859,0.017000,-0.673000,-1.032000,22.977000,-50.626000,7.740000,30.04
0.543518,0.283000,-0.741000,-1.195000,26.962000,-48.458000,34.076000,30.22
0.549951,0.430000,-0.709000,-1.124000,25.832000,-49.374000,63.542000,30.22
0.562105,0.553000,-0.658000,-1.063000,23.313000,-56.473000,91.466000,30.18
0.570481,0.593000,-0.444000,-0.944000,19.985000,-56.489000,112.702000,30.18
0.579520,0.615000,-0.267000,-0.885000,15.450000,-48.015000,124.015000,30.22
0.589280,0.668000,-0.109000,-0.906000,10.321000,-33.221000,125.740000,30.22
0.598744,0.720000,0.029000,-0.994000,6.092000,-31.298000,119.924000,30.18
0.608822,0.759000,0.140000,-1.043000,3.710000,-37.496000,106.855000,30.22
0.618748,0.780000,0.225000,-1.047000,1.893000,-47.466000,88.458000,30.22
0.628700,0.766000,0.288000,-0.947000,0.718000,-57.038000,66.611000,30.13
0.638714,0.755000,0.331000,-0.797000,-0.015000,-56.718000,41.618000,30.18
0.648689,0.801000,0.297000,-0.711000,0.809000,-48.809000,18.489000,30.18
0.658698,0.906000,0.215000,-0.706000,6.412000,-38.443000,2.244000,30.13
0.668782,0.996000,0.163000,-0.714000,13.954000,-33.267000,-5.267000,30.13
0.678958,1.062000,0.049000,-0.762000,22.382000,-29.389000,-6.779000,30.13
0.688924,1.058000,0.010000,-0.719000,25.985000,-27.481000,-4.061000,30.08
0.698778,1.017000,0.009000,-0.646000,23.710000,-25.588000,-0.718000,30.08
0.708844,0.922000,0.020000,-0.532000,18.015000,-21.634000,0.489000,30.22
0.718871,0.862000,0.036000,-0.471000,12.595000,-13.527000,-1.160000,30.22
0.728777,0.846000,-0.016000,-0.555000,9.450000,-4.458000,-3.939000,30.18
0.738854,0.849000,-0.027000,-0.677000,8.992000,-3.771000,-5.023000,30.18
0.748806,0.823000,-0.090000,-0.740000,8.794000,-13.435000,-5.328000,30.18
0.758807,0.740000,-0.108000,-0.746000,3.359000,-29.282000,-4.962000,30.13
0.768834,0.669000,-0.132000,-0.759000,-5.573000,-42.840000,-6.153000,30.22
0.778945,0.634000,-0.151000,-0.893000,-10.122000,-54.092000,-5.481000,30.27
0.788887,0.665000,0.187000,0.324000,18.504000,40.855000,-11.847000,30.18
0.798847,0.877000,0.443000,0.971000,-29.389000,-1.618000,-13.252000,30.13
0.808946,1.111000,-0.046000,0.062000,2.977000,35.374000,-21.985000,30.13
0.819046,1.125000,-0.628000,-1.659000,21.832000,46.687000,11.191000,30.08
0.828980,0.021000,-0.926000,-1.105000,1.695000,10.580000,25.359000,30.18
0.838997,-0.443000,-0.721000,-0.619000,-12.427000,3.863000,0.840000,30.18
0.849050,0.117000,-0.712000,-0.969000,-17.634000,35.542000,-4.000000,30.13
0.858991,0.648000,-0.221000,-1.320000,-18.733000,63.649000,-6.031000,30.13
0.869079,0.478000,0.295000,-1.354000,-8.763000,63.252000,-10.061000,30.18
0.879164,0.162000,0.295000,-1.201000,11.328000,40.504000,-15.435000,30.18
0.889090,0.031000,0.019000,-0.883000,26.305000,32.641000,-19.573000,30.13
0.899161,0.189000,-0.225000,-0.837000,36.794000,36.443000,-19.954000,30.13
0.909140,0.384000,-0.281000,-0.944000,44.351000,51.298000,-15.618000,30.18
0.919139,0.318000,-0.181000,-0.931000,49.817000,63.924000,-16.885000,30.04
0.929286,0.406000,-0.321000,-1.045000,44.977000,58.107000,-24.260000,30.22
0.939336,0.571000,-0.558000,-0.988000,33.206000,40.977000,-21.603000,30.13
0.949264,0.569000,-0.599000,-0.923000,23.145000,29.053000,-15.466000,30.08
0.959314,0.491000,-0.533000,-0.917000,12.824000,19.679000,-11.802000,30.18
0.969254,0.504000,-0.592000,-0.910000,2.153000,14.122000,-10.092000,30.13
0.979183,0.420000,-0.575000,-0.835000,-8.214000,13.221000,-9.511000,30.13
0.989370,0.376000,-0.470000,-0.821000,-16.443000,15.344000,-9.893000,30.04
0.999334,0.332000,-0.406000,-0.872000,-20.580000,7.603000,-12.183000,30.18
1.009235,0.357000,-0.410000,-0.886000,-22.137000,12.031000,-12.260000,30.18
1.019181,0.246000,-0.316000,-0.781000,-23.802000,11.191000,-13.084000,30.13
1.029296,0.150000,-0.297000,-0.783000,-23.191000,12.458000,-17.099000,30.22
1.038908,0.220000,-0.413000,-0.743000,-27.160000,20.916000,-21.206000,30.08
1.048801,0.304000,-0.420000,-0.752000,-35.053000,33.954000,-23.344000,30.18
1.058827,0.337000,-0.340000,-0.789000,-40.916000,36.076000,-23.924000,30.13
1.068744,0.385000,-0.484000,-0.879000,-48.092000,35.069000,-26.427000,30.13
1.078748,0.557000,-0.431000,-0.953000,-45.847000,29.328000,-23.802000,30.22
1.088755,0.439000,-0.357000,-0.918000,-44.824000,21.832000,-22.015000,30.18
1.098757,0.450000,-0.367000,-0.903000,-44.122000,17.053000,-21.817000,30.18
1.108758,0.417000,-0.328000,-0.875000,-46.107000,15.023000,-20.992000,30.13
1.118737,0.383000,-0.291000,-0.857000,-47.191000,17.160000,-20.458000,30.13
1.128777,0.384000,-0.295000,-0.840000,-47.969000,18.641000,-20.168000,30.18
1.138756,0.346000,-0.161000,-0.910000,-43.588000,24.244000,-18.244000,30.08
1.148744,0.330000,-0.217000,-0.919000,-37.893000,27.221000,-17.160000,30.13
1.158803,0.346000,-0.231000,-0.891000,-36.748000,30.916000,-17.389000,30.22
1.168815,0.387000,-0.247000,-0.903000,-30.076000,38.107000,-16.962000,30.13
1.178801,0.410000,-0.147000,-0.888000,-20.824000,38.366000,-15.985000,30.18
1.188893,0.372000,-0.275000,-0.825000,-18.198000,44.153000,-17.023000,30.18
1.198835,0.372000,-0.270000,-0.861000,-18.031000,49.069000,-20.000000,30.04
1.209519,0.411000,-0.268000,-0.882000,-21.420000,51.954000,-23.221000,30.22
1.218905,0.445000,-0.284000,-0.911000,-25.069000,57.603000,-27.038000,30.18
1.228808,0.417000,-0.369000,-0.854000,-26.198000,60.244000,-26.198000,30.22
1.238801,0.475000,-0.252000,-0.927000,-25.542000,58.962000,-29.817000,30.13
1.248800,0.296000,-0.138000,-1.050000,-15.908000,57.802000,-36.198000,30.22
1.258804,0.443000,-0.175000,-0.859000,-22.901000,74.595000,-37.008000,30.18
1.268865,0.468000,-0.307000,-0.842000,-19.847000,101.237000,-36.427000,30.18
1.278965,0.436000,-0.327000,-0.725000,-33.527000,122.290000,-33.695000,30.04
1.288962,0.374000,-0.220000,-0.934000,-40.351000,136.321000,-38.015000,30.13
1.298897,0.444000,-0.073000,-0.847000,-38.718000,170.214000,-47.282000,30.13
1.308901,0.489000,-0.102000,-0.829000,-44.870000,192.748000,-47.435000,30.08
1.318922,0.415000,0.038000,-0.912000,-34.641000,205.771000,-48.198000,30.18
1.329117,0.354000,-0.169000,-0.854000,-26.061000,206.748000,-52.336000,30.04
1.339125,0.488000,-0.214000,-0.858000,-25.267000,231.832000,-69.847000,30.13
1.349074,0.547000,-0.216000,-0.941000,-19.847000,223.527000,-86.336000,30.18
1.359055,0.649000,-0.379000,-0.990000,-4.015000,236.611000,-94.641000,30.18
1.369197,0.913000,-0.387000,-1.063000,12.977000,237.481000,-103.740000,30.18
1.379133,1.012000,-0.441000,-1.273000,20.290000,276.107000,-104.641000,30.13
1.389109,0.922000,-0.366000,-1.218000,15.053000,283.908000,-111.908000,30.13
1.399180,1.292000,-0.277000,-1.605000,7.267000,319.420000,-120.931000,30.18
1.409151,1.592000,-0.474000,-2.033000,-0.550000,362.519000,-138.947000,30.08
1.419170,1.647000,-0.437000,-2.123000,-5.695000,358.015000,-161.771000,30.13
1.429212,1.256000,-0.580000,-2.825000,42.656000,354.244000,-146.443000,30.13
1.439096,0.188000,-1.599000,-2.880000,100.977000,215.160000,-129.176000,30.13
1.449107,-0.145000,-4.000000,-3.465000,59.099000,0.580000,2.809000,30.08
1.459234,-0.045000,-3.548000,-3.826000,-129.023000,-119.084000,58.504000,30.08
1.469153,-1.465000,-1.421000,-1.806000,-168.672000,-190.198000,79.160000,30.13
1.479929,-1.354000,-0.389000,-1.847000,-103.389000,-204.214000,55.221000,30.13
1.488995,-1.171000,-0.097000,-1.935000,-26.153000,-255.023000,10.366000,30.18
1.499275,-0.750000,-0.627000,-1.829000,3.435000,-238.229000,-25.145000,30.18
1.509314,-0.510000,-0.865000,-1.510000,-7.908000,-261.725000,-49.344000,30.13
1.519282,-0.262000,-0.824000,-1.258000,-30.840000,-276.565000,-69.328000,30.13
1.529096,-0.003000,-0.667000,-1.149000,-19.435000,-309.878000,-76.092000,30.13
1.539129,0.193000,-0.648000,-1.056000,14.824000,-307.924000,-67.817000,30.18
1.550811,0.444000,-0.884000,-0.927000,47.344000,-301.603000,-44.901000,30.18
1.559011,0.568000,-1.123000,-0.800000,64.718000,-282.672000,-10.595000,30.22
1.568900,0.667000,-1.178000,-0.782000,69.908000,-260.733000,31.084000,30.13
1.578830,0.746000,-1.033000,-0.836000,72.779000,-234.473000,68.611000,30.18
1.588795,0.802000,-0.856000,-0.893000,80.198000,-213.893000,98.580000,30.13
1.598827,0.856000,-0.603000,-1.020000,89.771000,-203.557000,114.565000,30.13
1.608756,0.886000,-0.428000,-1.134000,98.473000,-195.756000,118.626000,30.13
1.618751,0.927000,-0.304000,-1.247000,109.496000,-193.359000,115.115000,30.18
1.628854,1.030000,-0.289000,-1.331000,120.000000,-196.092000,112.000000,30.18
1.639275,1.103000,-0.289000,-1.374000,126.947000,-194.427000,114.198000,30.13
1.648842,1.157000,-0.229000,-1.342000,131.450000,-192.412000,118.580000,30.22
1.658802,1.204000,-0.118000,-1.329000,134.794000,-183.679000,119.985000,30.13
1.668934,1.277000,0.005000,-1.338000,137.252000,-173.115000,116.046000,30.18
1.678787,1.394000,0.087000,-1.376000,139.466000,-169.053000,107.282000,30.18
1.688861,1.556000,0.122000,-1.431000,143.511000,-164.519000,96.092000,30.22
1.698752,1.705000,0.246000,-1.352000,151.924000,-164.702000,85.969000,30.04
1.708761,1.740000,0.418000,-1.203000,162.198000,-158.809000,75.771000,30.18
1.718800,1.791000,0.595000,-1.095000,171.221000,-151.847000,65.481000,30.18
1.728772,1.866000,0.709000,-0.976000,174.458000,-139.557000,58.290000,30.22
1.738739,1.971000,0.790000,-0.835000,172.382000,-121.176000,55.954000,30.04
1.748745,2.164000,0.817000,-0.725000,165.237000,-104.183000,58.382000,30.22
1.758759,2.278000,0.910000,-0.496000,152.947000,-88.504000,60.198000,30.18
1.768834,2.368000,0.976000,-0.313000,126.855000,-72.840000,55.420000,30.18
1.778766,2.309000,1.092000,-0.092000,86.107000,-58.947000,40.962000,30.13
1.788814,2.312000,1.169000,-0.036000,46.779000,-39.298000,26.290000,30.04
1.798725,2.383000,1.190000,-0.047000,19.771000,-18.382000,23.985000,30.18
1.808740,2.400000,0.998000,-0.052000,-5.954000,2.519000,33.282000,30.18
1.818706,1.154000,0.461000,0.300000,-20.763000,19.527000,57.511000,30.04
1.828937,2.121000,1.335000,0.873000,-120.229000,66.870000,3.847000,30.13
1.838741,0.121000,0.474000,-0.709000,-59.588000,118.611000,11.511000,30.13
1.848752,1.240000,-0.732000,-2.559000,-76.489000,36.916000,13.176000,30.18
1.858746,-0.629000,-0.694000,-1.359000,-99.740000,17.176000,1.893000,30.08
1.868917,-0.653000,-0.479000,-0.248000,-102.321000,32.046000,-33.221000,30.04
1.878911,-0.043000,-0.140000,-0.538000,-70.305000,102.855000,-46.748000,30.13
1.889000,0.594000,0.272000,-1.386000,-43.420000,126.198000,-36.992000,30.18
1.898942,0.366000,0.679000,-1.697000,-37.969000,136.122000,-56.870000,30.08
1.908967,0.271000,0.597000,-1.817000,-25.160000,116.183000,-81.435000,30.13
1.918956,0.473000,0.066000,-1.473000,0.122000,99.191000,-83.725000,30.13
1.929003,0.583000,-0.292000,-1.138000,24.031000,98.565000,-70.962000,30.13
1.939177,0.479000,-0.315000,-1.043000,37.740000,94.885000,-60.977000,30.18
1.949069,0.514000,-0.424000,-0.978000,42.885000,92.855000,-57.466000,30.04
1.959130,0.648000,-0.646000,-0.870000,40.885000,85.099000,-51.618000,30.13
1.969075,0.803000,-0.967000,-0.867000,26.092000,64.992000,-42.794000,30.22
1.979225,0.703000,-0.838000,-0.787000,7.099000,47.679000,-32.641000,30.18
1.989126,0.525000,-0.556000,-0.927000,-9.908000,36.733000,-29.695000,30.08
1.999163,0.545000,-0.552000,-1.081000,-29.756000,17.740000,-27.573000,30.04
2.009251,0.500000,-0.601000,-0.897000,-43.863000,15.985000,-22.824000,30.13
2.018986,0.435000,-0.584000,-0.987000,-45.191000,23.115000,-21.832000,30.08
2.028894,0.408000,-0.341000,-0.990000,-39.710000,23.588000,-18.412000,30.18
2.038842,0.269000,-0.308000,-0.926000,-32.992000,26.595000,-18.565000,30.18
2.048853,0.247000,-0.406000,-0.810000,-28.260000,29.008000,-20.183000,30.22
2.058824,0.298000,-0.406000,-0.780000,-32.351000,32.687000,-22.611000,30.13
2.068822,0.343000,-0.371000,-0.820000,-37.084000,32.641000,-24.305000,30.08
2.078973,0.301000,-0.457000,-0.686000,-49.405000,35.023000,-28.382000,30.18
2.088944,0.331000,-0.594000,-0.617000,-66.840000,33.313000,-33.206000,30.22
2.098875,0.412000,-0.653000,-0.738000,-91.511000,35.405000,-38.427000,30.13
2.108873,0.427000,-0.454000,-0.818000,-113.282000,57.344000,-43.908000,30.18
2.119001,0.467000,-0.476000,-0.835000,-113.710000,30.275000,-47.969000,30.08
2.129149,0.612000,-0.225000,-1.125000,-105.832000,26.382000,-47.969000,30.13
2.138971,0.473000,-0.357000,-0.892000,-93.771000,18.550000,-49.237000,30.13
2.148996,0.499000,-0.168000,-1.186000,-80.458000,15.221000,-48.290000,30.04
2.159044,0.487000,-0.206000,-0.961000,-67.695000,19.573000,-44.992000,30.08
2.169061,0.400000,-0.096000,-0.932000,-56.580000,16.000000,-40.885000,30.08
2.179049,0.425000,-0.180000,-0.945000,-49.298000,20.214000,-39.466000,30.22
2.189073,0.412000,-0.153000,-0.939000,-46.351000,22.901000,-39.832000,30.13
2.199068,0.440000,-0.203000,-0.912000,-45.328000,30.916000,-40.855000,30.18
2.209070,0.370000,-0.252000,-0.867000,-43.115000,46.046000,-36.061000,30.18
2.219207,0.475000,-0.148000,-0.918000,-34.611000,45.725000,-35.710000,30.13
2.229228,0.521000,-0.151000,-0.927000,-27.282000,47.542000,-37.481000,30.22
2.239232,0.653000,-0.566000,-0.906000,-31.557000,64.718000,-36.565000,30.13
2.249209,0.504000,-0.051000,-1.007000,-28.855000,73.985000,-39.053000,30.18
2.259202,0.495000,-0.210000,-0.909000,-31.237000,93.908000,-33.252000,30.13
2.269398,0.409000,-0.180000,-0.945000,-24.580000,104.244000,-32.000000,30.22
2.279071,0.517000,-0.115000,-0.979000,-34.626000,124.733000,-28.870000,30.13
2.289421,0.424000,-0.151000,-0.874000,-32.229000,142.382000,-30.733000,30.18
2.299452,0.372000,-0.080000,-0.808000,-29.405000,160.244000,-39.435000,30.08
2.309361,0.421000,-0.016000,-0.828000,-5.481000,168.412000,-50.260000,30.13
2.319496,0.431000,-0.069000,-0.892000,-9.786000,206.595000,-43.206000,30.22
2.329614,0.405000,-0.114000,-0.939000,7.664000,205.573000,-47.252000,30.13
2.339488,0.390000,-0.254000,-0.971000,15.405000,224.641000,-59.221000,30.18
2.349639,0.703000,-0.202000,-1.010000,35.679000,242.489000,-73.603000,30.18
2.359626,0.604000,-0.331000,-1.022000,27.481000,258.534000,-86.595000,30.22
2.372570,0.983000,-0.375000,-1.233000,8.855000,270.580000,-98.855000,30.04
2.379259,0.831000,-0.529000,-1.193000,-7.695000,299.435000,-109.649000,30.13
2.389902,1.333000,-0.455000,-1.588000,-20.031000,318.275000,-119.893000,30.08
2.399691,1.489000,-0.433000,-1.928000,-15.542000,349.817000,-137.542000,30.08
2.409832,1.845000,-0.436000,-2.022000,-18.168000,352.733000,-165.679000,30.13
2.419694,1.583000,-0.713000,-2.726000,17.160000,347.817000,-166.733000,30.22
2.429678,0.042000,-2.063000,-3.480000,77.603000,138.305000,-134.977000,30.08
2.439120,0.208000,-4.000000,-2.656000,14.168000,15.679000,-14.519000,30.18
2.452253,-0.615000,-3.378000,-2.702000,-146.595000,-16.122000,17.603000,30.18
2.459624,-0.743000,-2.441000,-1.769000,-181.969000,-95.328000,63.344000,30.13
2.469810,-0.751000,-1.542000,-2.018000,-171.756000,-98.550000,70.992000,30.13
2.479655,-0.790000,-1.061000,-1.932000,-122.962000,-117.725000,67.557000,30.18
2.489441,-0.782000,-0.896000,-1.725000,-74.931000,-156.962000,48.870000,30.18
2.499383,-0.677000,-0.847000,-1.320000,-52.229000,-193.511000,26.107000,30.13
2.509577,-0.526000,-0.763000,-1.110000,-37.053000,-220.931000,2.534000,30.13
2.519453,-0.294000,-0.585000,-1.123000,-14.519000,-231.985000,-13.817000,30.18
2.529410,-0.143000,-0.428000,-1.081000,30.733000,-237.237000,-22.595000,30.08
2.539464,0.034000,-0.437000,-1.012000,73.282000,-229.328000,-26.931000,30.08
2.549505,0.178000,-0.550000,-0.922000,98.107000,-227.053000,-26.092000,30.22
2.559303,0.336000,-0.668000,-0.956000,105.328000,-229.023000,-18.794000,30.13
2.569273,0.485000,-0.645000,-1.026000,109.252000,-228.855000,-4.565000,30.18
2.579191,0.601000,-0.637000,-1.085000,117.145000,-223.878000,16.015000,30.18
2.589359,0.694000,-0.660000,-1.108000,125.802000,-215.206000,42.397000,30.13
2.599288,0.783000,-0.651000,-1.177000,130.809000,-206.168000,72.824000,30.13
2.609238,0.836000,-0.580000,-1.201000,131.145000,-197.954000,103.267000,30.13
2.619124,0.879000,-0.453000,-1.277000,127.863000,-187.573000,128.962000,30.18
2.629067,0.917000,-0.149000,-1.373000,128.748000,-176.046000,145.985000,30.18
2.638903,0.931000,0.056000,-1.527000,132.565000,-170.565000,151.542000,30.13
2.648932,1.003000,0.239000,-1.668000,135.832000,-172.260000,147.481000,30.13
2.659110,1.138000,0.377000,-1.791000,138.641000,-185.466000,135.542000,30.18
2.668999,1.253000,0.458000,-1.789000,136.748000,-203.847000,119.389000,30.13
2.678980,1.393000,0.508000,-1.687000,133.649000,-220.947000,102.489000,30.13
2.689071,1.514000,0.516000,-1.568000,130.565000,-227.634000,87.817000,30.13
2.699098,1.689000,0.536000,-1.456000,128.107000,-225.542000,78.229000,30.18
2.709090,1.856000,0.492000,-1.284000,128.260000,-219.389000,74.382000,30.18
2.719079,2.002000,0.479000,-1.069000,124.137000,-207.817000,78.977000,30.22
2.729198,2.089000,0.520000,-0.810000,115.466000,-190.824000,89.145000,30.13
2.739293,2.183000,0.580000,-0.663000,102.931000,-163.084000,101.282000,30.22
2.749276,2.300000,0.675000,-0.538000,88.901000,-131.756000,113.221000,30.18
2.759280,2.402000,0.769000,-0.430000,71.878000,-102.931000,123.313000,30.18
2.769324,2.476000,0.857000,-0.251000,52.534000,-77.313000,130.046000,30.22
2.779478,2.521000,0.940000,-0.086000,35.267000,-53.160000,132.260000,30.22
2.789280,2.554000,1.032000,0.068000,20.748000,-23.450000,130.931000,30.13
2.799393,2.574000,1.093000,0.182000,9.328000,5.328000,125.221000,30.08
2.809288,2.497000,1.126000,0.264000,-6.718000,39.969000,112.183000,30.08
2.819433,2.384000,1.039000,0.081000,-25.756000,66.519000,91.985000,30.13
2.829466,1.840000,1.732000,0.607000,0.183000,166.198000,17.221000,30.04
2.839405,1.217000,0.852000,0.556000,26.168000,67.298000,-2.504000,30.18
2.849407,1.132000,-0.580000,-1.636000,-21.649000,90.489000,-46.885000,30.08
2.859414,-0.118000,-0.890000,-2.068000,-49.893000,-13.878000,-57.817000,30.18
2.869424,-0.602000,-1.314000,-0.343000,-51.450000,3.008000,-65.405000,30.04
2.879441,-0.143000,-1.376000,0.188000,-56.519000,108.046000,-60.382000,30.22
2.889486,0.713000,-0.537000,-0.709000,-15.817000,176.763000,-43.527000,30.18
2.899393,0.881000,0.321000,-2.098000,-13.237000,202.855000,-50.244000,30.08
2.909526,0.633000,1.086000,-2.547000,4.046000,163.710000,-79.389000,30.22
2.919414,0.548000,0.757000,-1.983000,42.595000,124.092000,-90.443000,30.13
2.929389,0.597000,-0.302000,-1.293000,71.450000,101.725000,-80.046000,30.18
2.939426,0.585000,-0.937000,-0.708000,78.611000,96.656000,-60.504000,29.99
2.949376,0.781000,-1.101000,-0.924000,56.137000,79.420000,-54.931000,30.13
2.959465,0.935000,-1.010000,-0.840000,26.031000,87.924000,-44.260000,30.04
2.969382,0.807000,-0.881000,-0.871000,1.573000,83.954000,-39.099000,30.04
2.979390,0.809000,-0.898000,-0.854000,-11.405000,62.000000,-28.748000,30.18
2.989426,0.518000,-0.744000,-0.765000,-25.313000,32.412000,-23.832000,30.18
2.999659,0.273000,-0.590000,-0.660000,-35.863000,21.786000,-24.580000,30.22
3.009476,0.212000,-0.536000,-0.662000,-49.420000,19.771000,-30.977000,30.04
3.019577,0.301000,-0.496000,-0.817000,-54.977000,36.855000,-35.374000,30.18
3.029361,0.341000,-0.355000,-0.943000,-55.176000,60.046000,-37.145000,30.18
3.039431,0.346000,-0.177000,-0.961000,-57.221000,60.198000,-36.000000,30.18
3.049522,0.389000,-0.312000,-0.908000,-59.450000,52.092000,-32.626000,30.13
3.059305,0.507000,-0.512000,-0.901000,-60.947000,44.885000,-28.962000,30.22
3.069203,0.627000,-0.576000,-1.065000,-47.863000,39.328000,-24.855000,30.08
3.079188,0.467000,-0.356000,-0.864000,-39.710000,30.550000,-24.046000,30.13
3.089282,0.484000,-0.560000,-0.751000,-41.771000,29.710000,-26.092000,30.13
3.099303,0.417000,-0.492000,-0.696000,-52.137000,24.519000,-30.031000,30.13
3.109288,0.422000,-0.482000,-0.697000,-68.076000,23.481000,-34.763000,30.18
3.119205,0.440000,-0.370000,-0.709000,-82.092000,41.115000,-38.153000,30.18
3.129170,0.503000,-0.406000,-0.992000,-82.397000,37.496000,-38.321000,30.13
3.139435,0.416000,-0.304000,-0.824000,-77.206000,29.802000,-39.511000,30.22
3.149475,0.507000,-0.317000,-0.900000,-74.672000,29.023000,-39.908000,30.04
3.159359,0.431000,-0.298000,-0.888000,-72.947000,25.863000,-42.214000,30.18
3.169216,0.489000,-0.226000,-0.902000,-66.824000,19.557000,-43.634000,30.08
3.179265,0.407000,-0.307000,-0.847000,-58.534000,18.550000,-41.573000,30.13
3.189479,0.511000,-0.198000,-0.938000,-51.802000,23.420000,-40.458000,30.22
3.199301,0.536000,-0.199000,-0.915000,-44.290000,30.000000,-37.573000,30.08
3.209522,0.495000,-0.230000,-0.882000,-39.099000,31.863000,-36.870000,30.18
3.219482,0.517000,-0.334000,-0.895000,-43.435000,39.206000,-34.672000,30.04
3.229373,0.479000,-0.136000,-0.875000,-26.870000,46.809000,-34.977000,30.04
3.239361,0.443000,-0.187000,-0.891000,-16.183000,58.427000,-35.725000,30.18
3.249311,0.469000,-0.325000,-0.824000,-23.634000,78.092000,-32.168000,30.08
3.259309,0.428000,-0.272000,-0.850000,-25.176000,93.374000,-33.298000,30.08
3.269309,0.456000,-0.222000,-0.845000,-30.366000,110.015000,-32.992000,30.13
3.279042,0.528000,-0.196000,-0.869000,-28.794000,128.992000,-32.794000,30.13
3.288871,0.458000,-0.171000,-0.843000,-37.115000,147.756000,-34.855000,30.18
3.299698,0.402000,-0.118000,-0.830000,-34.046000,167.649000,-41.695000,30.08
3.309737,0.484000,-0.126000,-0.826000,-32.687000,183.115000,-45.191000,30.13
3.319787,0.521000,-0.131000,-0.840000,-14.290000,191.603000,-47.237000,30.22
3.329238,0.475000,-0.201000,-0.829000,-6.580000,206.763000,-52.687000,30.13
3.339227,0.536000,-0.185000,-0.853000,-4.824000,220.198000,-62.962000,30.18
3.349109,0.575000,-0.221000,-0.905000,-6.061000,235.466000,-73.450000,30.18
3.359171,0.612000,-0.421000,-0.987000,-10.702000,247.664000,-88.275000,30.13
3.369300,0.962000,-0.570000,-1.320000,8.412000,250.916000,-104.000000,30.13
3.379163,0.899000,-0.650000,-1.271000,20.504000,295.328000,-112.977000,30.08
3.389178,1.231000,-0.489000,-1.748000,35.435000,327.634000,-121.954000,30.13
3.399186,1.658000,-0.496000,-1.805000,13.496000,359.389000,-130.519000,30.04
3.409215,1.815000,-0.157000,-1.905000,-6.061000,382.626000,-153.053000,30.13
3.419145,1.731000,-0.366000,-2.289000,-2.595000,389.237000,-162.901000,30.18
3.429118,1.512000,-0.318000,-2.986000,25.145000,300.504000,-153.695000,30.18
3.439159,-0.828000,-2.811000,-2.942000,66.901000,168.336000,-73.985000,30.22
3.449040,0.530000,-4.000000,-2.874000,-32.321000,-66.107000,57.786000,30.13
3.458940,-0.954000,-3.065000,-2.639000,-226.672000,-169.924000,124.244000,30.13
3.468928,-1.845000,-1.093000,-1.384000,-245.145000,-107.099000,118.519000,30.18
3.479080,-1.418000,-0.094000,-2.326000,-173.771000,-153.817000,81.176000,30.08
3.489250,-1.045000,0.109000,-2.533000,-80.947000,-168.168000,19.908000,30.13
3.499191,-0.707000,-0.536000,-1.997000,-53.191000,-244.595000,-33.649000,30.13
3.509186,-0.380000,-0.614000,-1.658000,-63.924000,-285.282000,-90.656000,30.18
3.519222,-0.057000,-0.498000,-1.484000,-75.939000,-339.481000,-130.031000,30.08
3.529489,0.268000,-0.552000,-1.364000,-45.084000,-366.962000,-147.740000,30.04
3.539283,0.443000,-0.673000,-1.156000,6.794000,-355.344000,-144.015000,30.13
3.549317,0.613000,-0.987000,-0.919000,50.855000,-328.779000,-118.489000,30.04
3.559446,0.979000,-1.280000,-0.949000,71.786000,-317.817000,-73.954000,30.08
3.569472,1.103000,-1.359000,-0.983000,76.824000,-312.061000,-22.718000,30.08
3.579293,1.034000,-1.190000,-0.929000,81.359000,-302.840000,22.489000,30.04
3.589393,0.952000,-0.843000,-0.857000,100.931000,-281.618000,56.107000,30.13
3.599563,0.947000,-0.659000,-0.951000,124.641000,-256.870000,80.656000,29.99
3.609384,1.025000,-0.588000,-1.084000,145.756000,-234.840000,104.275000,30.18
3.619266,0.958000,-0.489000,-1.128000,159.557000,-210.962000,125.863000,30.13
3.629229,0.900000,-0.248000,-1.071000,169.511000,-186.931000,144.489000,30.13
3.639279,0.686000,0.056000,-1.049000,174.977000,-167.267000,147.298000,30.13
3.649348,0.691000,0.158000,-1.311000,167.359000,-154.260000,130.397000,30.18
3.659275,0.907000,0.183000,-1.769000,155.374000,-156.794000,103.084000,30.18
3.669389,1.030000,0.289000,-1.896000,155.359000,-168.366000,74.015000,30.22
3.679170,1.123000,0.258000,-1.821000,164.992000,-181.115000,49.679000,30.13
3.689394,1.296000,0.184000,-1.646000,173.557000,-188.611000,37.756000,29.99
3.699493,1.444000,0.170000,-1.503000,181.450000,-190.519000,36.443000,30.04
3.709403,1.562000,0.275000,-1.321000,184.000000,-177.176000,37.359000,30.13
3.719427,1.721000,0.331000,-1.262000,182.916000,-163.527000,38.718000,30.13
3.729467,1.941000,0.385000,-1.334000,176.641000,-148.718000,42.489000,30.22
3.739291,2.112000,0.529000,-1.267000,177.466000,-146.977000,51.924000,30.08
3.749304,2.206000,0.657000,-0.994000,184.458000,-147.023000,67.924000,30.13
3.759298,2.306000,0.735000,-0.539000,188.153000,-130.046000,88.382000,30.04
3.769339,2.422000,0.760000,-0.161000,177.359000,-92.031000,110.305000,30.22
3.779581,2.635000,0.777000,-0.070000,151.053000,-47.496000,134.840000,30.18
3.789445,2.745000,0.985000,0.028000,118.672000,-8.611000,153.038000,30.18
3.799497,2.829000,1.175000,0.046000,88.260000,23.038000,159.573000,30.13
3.809401,2.852000,1.375000,0.071000,50.550000,41.115000,157.115000,30.04
3.819435,2.626000,1.426000,0.243000,8.107000,63.756000,143.359000,30.08
3.829369,2.297000,1.446000,0.102000,-17.466000,59.634000,122.718000,30.18
3.839478,3.345000,2.305000,0.230000,-82.137000,129.557000,30.397000,30.08
3.849506,0.349000,0.268000,-1.604000,-106.015000,194.550000,-4.321000,30.22
3.859600,0.051000,-0.685000,-3.062000,-110.427000,1.191000,-16.992000,30.13
3.869394,-1.407000,-0.586000,-0.667000,-96.153000,9.496000,-44.733000,30.08
3.879538,-0.684000,-0.281000,0.155000,-105.908000,85.924000,-86.992000,30.08
3.889428,0.568000,-0.241000,-0.614000,-93.557000,152.840000,-94.656000,30.13
3.899539,0.979000,0.026000,-1.753000,-42.763000,176.229000,-73.893000,30.13
3.909311,0.621000,0.283000,-1.965000,-32.947000,198.794000,-84.977000,30.08
3.919510,0.501000,0.444000,-1.833000,-5.710000,162.763000,-96.153000,30.18
3.929430,0.524000,0.284000,-1.550000,32.794000,138.962000,-91.649000,30.13
3.939360,0.587000,-0.134000,-1.367000,55.160000,122.397000,-89.679000,30.13
3.949387,0.683000,-0.652000,-0.969000,58.397000,112.031000,-84.992000,30.13
3.959420,1.156000,-1.378000,-0.984000,25.298000,93.557000,-68.122000,30.08
3.969418,1.018000,-1.084000,-0.814000,3.725000,79.405000,-47.527000,30.08
3.979359,0.890000,-0.868000,-0.994000,-13.786000,57.450000,-34.733000,30.13
3.989508,0.576000,-0.602000,-0.840000,-28.931000,30.824000,-31.023000,30.13
3.999486,0.446000,-0.736000,-0.756000,-42.397000,12.489000,-27.542000,30.18
4.009451,0.311000,-0.628000,-0.673000,-60.031000,10.641000,-30.244000,30.13
4.019335,0.202000,-0.394000,-0.715000,-72.275000,16.702000,-36.351000,30.13
4.029184,0.218000,-0.287000,-0.662000,-91.344000,23.374000,-43.099000,30.13
4.039460,0.338000,-0.464000,-0.625000,-116.534000,41.084000,-48.656000,30.08
4.049480,0.654000,-0.735000,-1.297000,-103.969000,66.809000,-47.985000,30.27
4.059431,0.774000,-0.138000,-1.351000,-70.763000,40.870000,-31.053000,30.04
4.069498,0.350000,-0.241000,-0.939000,-51.344000,35.817000,-27.908000,30.04
4.079476,0.396000,-0.481000,-0.848000,-49.191000,21.221000,-26.061000,30.13
4.089421,0.409000,-0.434000,-0.802000,-53.084000,15.649000,-28.611000,30.18
4.099407,0.419000,-0.398000,-0.804000,-57.573000,17.481000,-31.115000,30.08
4.109580,0.461000,-0.381000,-0.820000,-63.267000,24.092000,-33.527000,30.13
4.119433,0.479000,-0.374000,-0.971000,-69.084000,42.153000,-33.756000,30.13
4.129270,0.364000,-0.290000,-0.775000,-68.015000,29.557000,-36.137000,30.18
4.139535,0.454000,-0.411000,-0.838000,-69.618000,18.397000,-38.305000,30.08
4.149378,0.459000,-0.318000,-0.849000,-70.000000,23.420000,-40.015000,30.04
4.159508,0.451000,-0.219000,-1.055000,-60.427000,23.634000,-39.328000,30.13
4.169729,0.478000,-0.193000,-1.008000,-52.336000,25.496000,-37.908000,30.08
4.179376,0.444000,-0.178000,-0.907000,-47.237000,18.656000,-34.977000,30.08
4.189432,0.430000,-0.203000,-0.902000,-42.992000,14.290000,-33.649000,30.18
4.199543,0.464000,-0.177000,-0.934000,-40.244000,20.947000,-31.405000,30.13
4.209482,0.489000,-0.197000,-0.882000,-34.702000,26.748000,-28.061000,30.13
4.219391,0.471000,-0.129000,-0.922000,-28.947000,28.977000,-25.420000,30.18
4.229446,0.485000,-0.188000,-0.886000,-24.534000,31.374000,-24.076000,30.08
4.239458,0.554000,-0.448000,-0.700000,-25.099000,42.137000,-21.405000,30.04
4.249423,0.470000,-0.120000,-0.905000,-20.168000,39.557000,-26.763000,30.13
4.259471,0.449000,-0.203000,-0.885000,-18.153000,48.046000,-29.160000,30.08
4.269581,0.431000,-0.243000,-0.844000,-22.275000,60.931000,-30.595000,30.18
4.279308,0.462000,-0.280000,-0.871000,-26.733000,71.115000,-31.160000,30.08
4.289474,0.592000,-0.218000,-0.897000,-30.733000,91.450000,-27.053000,30.13
4.299371,0.478000,-0.205000,-0.887000,-28.382000,101.176000,-26.855000,30.22
4.309500,0.471000,-0.201000,-0.888000,-30.366000,118.504000,-27.771000,30.08
4.319497,0.469000,-0.116000,-0.830000,-32.092000,141.771000,-29.969000,30.18
4.329408,0.405000,-0.043000,-0.837000,-30.519000,161.405000,-32.611000,30.04
4.339530,0.410000,-0.083000,-0.813000,-28.015000,189.359000,-37.863000,30.04
4.349408,0.493000,-0.051000,-0.892000,-17.527000,195.679000,-38.901000,30.13
4.359434,0.462000,-0.118000,-0.837000,-11.527000,212.718000,-39.893000,30.18
4.369365,0.489000,-0.093000,-0.823000,-14.015000,233.664000,-47.511000,30.13
4.379516,0.621000,-0.137000,-0.888000,-19.130000,257.389000,-55.176000,30.13
4.389159,0.499000,-0.243000,-0.980000,-19.191000,246.214000,-62.718000,30.04
4.399209,0.891000,-0.343000,-1.065000,-14.947000,277.481000,-74.580000,30.18
4.408972,0.922000,-0.533000,-1.136000,11.588000,289.557000,-82.870000,30.08
4.418831,1.283000,-0.460000,-1.589000,44.137000,322.550000,-91.863000,30.04
4.430370,1.677000,-0.563000,-1.833000,76.504000,354.580000,-100.855000,30.13
4.439305,1.921000,-0.567000,-2.381000,65.160000,374.779000,-119.466000,30.13
4.449513,1.596000,-0.505000,-2.099000,57.664000,390.794000,-149.099000,30.18
4.460961,1.686000,-0.858000,-2.489000,86.046000,340.977000,-152.046000,30.08
4.469001,1.085000,-0.758000,-2.763000,102.748000,237.725000,-152.779000,30.04
4.481160,-1.196000,-3.549000,-2.553000,125.802000,176.550000,-87.344000,30.13
4.488881,1.293000,-4.000000,-2.562000,-58.153000,96.489000,61.710000,30.18
4.500760,-0.454000,-3.591000,-2.579000,-243.527000,-119.023000,134.733000,30.18
4.510115,-1.441000,-1.486000,-1.511000,-299.328000,-82.473000,132.092000,30.13
4.518987,-1.208000,-0.300000,-1.907000,-249.420000,-137.878000,93.053000,30.13
4.529044,-1.063000,0.091000,-2.212000,-155.740000,-167.252000,49.160000,30.13
4.548277,-0.890000,-0.143000,-1.900000,-77.954000,-218.870000,1.191000,30.08
4.549321,-0.708000,-0.531000,-1.418000,-27.908000,-262.931000,-42.580000,30.18
4.558764,-0.396000,-0.555000,-1.428000,-7.740000,-295.008000,-72.336000,30.13
4.568768,-0.040000,-0.618000,-1.240000,25.405000,-315.252000,-81.359000,30.13
4.578780,0.283000,-0.792000,-0.963000,60.595000,-278.092000,-78.702000,30.08
4.590117,0.515000,-0.951000,-0.757000,80.366000,-277.328000,-61.710000,29.99
4.598721,0.637000,-1.080000,-0.597000,83.496000,-274.366000,-31.969000,30.04
4.608670,0.793000,-1.185000,-0.676000,81.832000,-276.107000,7.084000,30.13
4.618814,0.933000,-1.200000,-0.826000,79.725000,-265.282000,44.794000,30.22
4.628863,0.976000,-1.156000,-0.991000,80.107000,-253.450000,81.466000,30.08
4.639212,1.003000,-0.972000,-1.096000,82.137000,-238.153000,112.443000,30.08
4.648867,1.053000,-0.783000,-1.130000,85.450000,-229.267000,134.931000,30.13
4.669273,1.088000,-0.543000,-1.180000,90.931000,-224.519000,150.122000,30.04
4.670141,1.061000,-0.313000,-1.195000,99.847000,-224.046000,156.061000,30.18
4.678924,1.035000,-0.157000,-1.286000,111.099000,-220.321000,154.061000,30.08
4.688846,1.114000,-0.140000,-1.399000,115.084000,-220.458000,148.550000,30.13
4.698802,1.173000,-0.098000,-1.442000,120.122000,-222.427000,142.763000,30.22
4.708729,1.314000,-0.078000,-1.511000,128.855000,-218.962000,135.740000,30.13
4.718624,1.493000,-0.119000,-1.509000,136.122000,-217.878000,131.466000,30.18
4.729222,1.708000,-0.200000,-1.452000,136.214000,-216.626000,129.939000,30.13
4.738731,1.988000,-0.223000,-1.381000,133.756000,-216.565000,129.618000,30.13
4.748746,2.207000,-0.104000,-1.288000,136.763000,-215.359000,129.771000,30.13
4.758702,2.323000,0.080000,-1.130000,147.969000,-207.374000,128.947000,30.18
4.768708,2.330000,0.333000,-0.919000,164.626000,-188.733000,127.130000,30.08
4.779024,2.438000,0.607000,-0.807000,179.221000,-161.863000,127.389000,30.04
4.788706,2.548000,0.837000,-0.703000,188.321000,-128.275000,131.053000,30.13
4.799384,2.746000,0.966000,-0.570000,179.863000,-100.672000,133.924000,30.13
4.809291,2.893000,1.106000,-0.331000,148.244000,-81.206000,128.763000,30.08
4.819085,2.845000,1.302000,-0.026000,93.115000,-64.824000,103.695000,30.08
4.829514,2.775000,1.544000,0.167000,37.267000,-45.954000,64.321000,30.13
4.839465,2.931000,1.685000,0.066000,8.427000,-23.603000,30.000000,30.13
4.849506,2.919000,1.566000,0.136000,-10.305000,-8.198000,16.473000,30.18
4.859537,3.232000,1.602000,0.737000,-113.008000,58.244000,-16.229000,30.08
4.869075,2.739000,2.148000,0.889000,-168.336000,145.695000,-57.008000,30.08
4.879937,0.472000,0.417000,-1.973000,-86.672000,143.496000,-41.206000,30.22
4.889760,-0.060000,-1.311000,-2.671000,-86.733000,6.137000,-35.359000,30.04
4.899140,-0.889000,-1.128000,-0.787000,-91.466000,16.626000,-47.985000,30.08
4.910918,-0.469000,-0.833000,0.256000,-101.191000,85.099000,-74.763000,30.08
4.919299,0.405000,-0.077000,-0.464000,-45.008000,170.122000,-68.519000,30.13
4.929067,0.962000,0.432000,-1.913000,-3.359000,162.412000,-41.969000,30.04
4.939199,0.340000,0.998000,-2.145000,-3.191000,165.481000,-76.748000,30.08
4.949471,0.388000,0.603000,-1.777000,28.626000,135.053000,-101.679000,30.08
4.959626,0.719000,-0.292000,-1.323000,56.061000,132.412000,-92.580000,30.13
4.969048,0.917000,-0.959000,-1.027000,61.954000,115.542000,-69.740000,30.13
4.979516,1.051000,-1.170000,-1.136000,34.580000,93.496000,-57.298000,30.08
4.989026,0.886000,-0.737000,-0.961000,14.656000,77.573000,-44.916000,30.08
4.999200,0.833000,-0.751000,-1.046000,-3.573000,63.420000,-37.557000,30.08
5.009059,0.740000,-0.758000,-0.844000,-14.870000,43.145000,-28.076000,30.13
5.022501,0.619000,-0.801000,-0.751000,-23.435000,27.664000,-20.489000,30.04
5.029528,0.426000,-0.585000,-0.787000,-28.412000,16.519000,-19.252000,30.08
5.039421,0.301000,-0.501000,-0.798000,-36.504000,16.840000,-23.588000,29.99
5.051432,0.281000,-0.436000,-0.729000,-50.000000,18.794000,-28.031000,30.04
5.060826,0.206000,-0.292000,-0.653000,-66.794000,16.427000,-31.176000,30.13
5.069963,0.226000,-0.317000,-0.667000,-87.939000,18.092000,-36.031000,30.13
5.078727,0.383000,-0.491000,-0.831000,-106.885000,39.405000,-38.336000,30.08
5.088736,0.581000,-0.508000,-1.103000,-92.672000,46.443000,-34.473000,30.13
5.098781,0.513000,-0.423000,-1.019000,-75.603000,40.519000,-30.427000,30.22
5.108837,0.490000,-0.448000,-0.968000,-64.229000,32.412000,-28.794000,30.04
5.118770,0.526000,-0.389000,-0.967000,-50.504000,23.053000,-25.649000,30.18
5.128894,0.456000,-0.428000,-0.840000,-46.046000,10.244000,-25.863000,30.18
5.138777,0.439000,-0.407000,-0.785000,-48.519000,13.313000,-28.550000,30.22
5.148799,0.385000,-0.409000,-0.757000,-55.664000,14.595000,-33.542000,30.13
5.158810,0.416000,-0.453000,-0.928000,-77.557000,50.153000,-35.344000,30.04
5.168828,0.371000,-0.323000,-0.784000,-66.824000,13.710000,-40.626000,30.08
5.178868,0.712000,-0.213000,-0.747000,-85.313000,40.840000,-54.397000,29.99
5.188859,-0.782000,0.068000,-1.307000,-69.786000,-36.565000,-42.000000,30.13
5.199005,0.505000,-0.063000,-1.156000,-57.405000,16.168000,-39.908000,30.04
5.208911,0.553000,-0.286000,-0.899000,-54.351000,25.710000,-39.695000,30.18
5.218870,0.460000,-0.167000,-0.928000,-48.519000,15.573000,-34.794000,30.18
5.228895,0.437000,-0.153000,-0.903000,-37.466000,20.244000,-29.344000,30.08
5.238885,0.488000,-0.183000,-0.909000,-30.214000,21.939000,-26.290000,30.13
5.248984,0.455000,-0.187000,-0.903000,-26.321000,27.679000,-25.038000,30.13
5.258905,0.473000,-0.188000,-0.896000,-24.733000,31.191000,-25.435000,30.08
5.268975,0.459000,-0.637000,-0.620000,-17.221000,41.542000,-23.740000,30.08
5.278965,0.477000,-0.077000,-0.912000,-18.962000,38.748000,-28.397000,30.13
5.290725,0.416000,-0.207000,-0.817000,-15.008000,52.901000,-29.939000,30.13
5.299010,0.419000,-0.337000,-0.834000,-20.809000,63.008000,-27.023000,30.18
5.308887,0.449000,-0.294000,-0.880000,-24.000000,74.290000,-28.672000,30.18
5.318860,0.511000,-0.245000,-0.914000,-28.000000,93.282000,-26.779000,30.18
5.328823,0.453000,-0.172000,-0.901000,-27.893000,114.885000,-25.908000,30.13
5.339312,0.462000,-0.192000,-0.887000,-29.710000,135.344000,-26.809000,30.13
5.348724,0.427000,-0.097000,-0.841000,-34.290000,159.817000,-29.374000,30.08
5.358792,0.385000,-0.076000,-0.816000,-26.779000,171.435000,-35.664000,30.18
5.369250,0.434000,-0.047000,-0.886000,-30.092000,194.641000,-37.847000,30.13
5.379221,0.427000,-0.040000,-0.865000,-18.107000,210.031000,-38.427000,30.22
5.388932,0.435000,-0.112000,-0.835000,-19.893000,231.618000,-42.855000,30.04
5.399716,0.512000,-0.174000,-0.844000,-24.824000,257.511000,-56.840000,30.18
5.412306,0.471000,-0.266000,-1.032000,-30.183000,259.450000,-68.076000,30.08
5.418829,0.895000,-0.479000,-1.164000,-27.481000,278.702000,-88.779000,30.13
5.429073,1.019000,-0.677000,-1.284000,1.374000,301.084000,-96.656000,30.13
5.438739,1.172000,-0.688000,-1.583000,23.481000,321.527000,-109.435000,30.08
5.448744,1.691000,-0.547000,-1.903000,32.183000,359.115000,-125.267000,30.08
5.458747,2.057000,-0.632000,-2.642000,-2.122000,407.695000,-159.771000,30.13
5.468846,1.715000,-0.632000,-2.201000,-34.031000,389.145000,-183.939000,30.13
5.478736,1.750000,-1.230000,-2.895000,-44.901000,372.244000,-187.176000,30.13
5.488817,0.542000,-1.272000,-2.873000,-42.489000,205.282000,-161.328000,30.08
5.498738,-1.163000,-4.000000,-3.001000,-26.901000,84.626000,-8.260000,30.04
5.508784,0.812000,-4.000000,-4.000000,-168.718000,27.511000,86.947000,30.13
5.518892,-1.248000,-2.175000,-2.256000,-277.496000,-110.061000,128.137000,30.04
5.528901,-1.602000,-0.502000,-2.165000,-269.985000,-130.641000,83.008000,30.08
5.538876,-1.393000,0.419000,-2.623000,-193.160000,-168.595000,24.947000,30.08
5.548847,-0.840000,0.514000,-2.844000,-96.519000,-242.565000,-49.405000,30.13
5.558870,-0.721000,-0.200000,-2.036000,-47.298000,-269.160000,-109.313000,30.22
5.568984,-0.461000,-0.534000,-1.514000,-24.687000,-359.069000,-143.817000,30.13
5.578926,-0.292000,-0.408000,-0.927000,-16.733000,-350.336000,-175.160000,30.08
5.588894,0.000000,-0.540000,-0.800000,20.244000,-294.031000,-181.695000,30.18
5.598853,0.416000,-0.791000,-0.896000,62.412000,-290.351000,-156.183000,30.22
5.608779,0.646000,-1.096000,-0.864000,98.321000,-293.527000,-110.702000,30.13
5.618736,0.779000,-1.321000,-0.848000,116.000000,-284.290000,-58.107000,30.13
5.628777,0.845000,-1.407000,-0.809000,122.916000,-272.870000,1.008000,30.18
5.638699,0.818000,-1.239000,-0.826000,124.412000,-248.275000,55.954000,30.08
5.648692,0.860000,-1.028000,-0.967000,130.809000,-222.809000,101.206000,30.13
5.658700,0.945000,-0.835000,-1.182000,137.466000,-206.473000,137.420000,30.04
5.668756,1.090000,-0.687000,-1.354000,139.786000,-204.748000,161.221000,30.08
5.678836,1.162000,-0.526000,-1.423000,135.069000,-211.221000,177.817000,30.18
5.688790,1.106000,-0.126000,-1.368000,139.679000,-211.496000,185.145000,30.13
5.698736,0.985000,0.138000,-1.410000,152.550000,-221.191000,177.969000,30.13
5.708753,1.010000,0.245000,-1.487000,160.305000,-207.634000,164.137000,30.13
5.718804,1.113000,0.248000,-1.625000,160.977000,-203.908000,144.977000,30.08
5.728920,1.312000,0.203000,-1.820000,158.076000,-204.076000,121.053000,30.08
5.738883,1.556000,0.171000,-1.863000,159.542000,-206.947000,100.580000,30.13
5.748833,1.792000,0.121000,-1.639000,166.336000,-211.374000,83.084000,30.04
5.758860,2.127000,0.078000,-1.391000,176.443000,-208.947000,71.542000,30.08
5.768906,2.389000,0.071000,-1.175000,188.580000,-198.046000,67.924000,30.08
5.778938,2.548000,0.162000,-1.021000,204.824000,-180.580000,74.687000,30.04
5.788964,2.551000,0.409000,-0.891000,224.076000,-158.565000,89.908000,30.13
5.798998,2.491000,0.758000,-0.834000,241.893000,-130.473000,111.817000,30.13
5.809004,2.594000,1.062000,-0.741000,253.237000,-103.084000,136.611000,30.08
5.818916,2.839000,1.146000,-0.522000,241.084000,-78.031000,154.336000,30.08
5.828971,2.972000,1.189000,-0.102000,190.015000,-63.588000,153.771000,30.13
5.838968,2.975000,1.412000,0.294000,117.053000,-42.809000,126.931000,30.04
5.849108,2.996000,1.623000,0.464000,57.985000,-21.298000,90.687000,30.08
5.859068,3.011000,1.743000,0.488000,20.183000,3.939000,65.053000,30.08
5.869126,2.899000,1.436000,0.447000,-14.412000,33.756000,55.939000,30.04
5.879153,2.721000,1.187000,0.224000,-52.351000,61.359000,59.908000,30.13
5.889070,2.689000,1.817000,-0.141000,-131.817000,155.817000,0.794000,30.04
5.898965,0.049000,0.018000,-1.629000,-127.939000,209.450000,11.969000,30.08
5.909203,-0.034000,-1.089000,-3.008000,-140.198000,17.527000,-8.031000,30.13
5.919172,-0.817000,-0.309000,-0.678000,-114.779000,46.382000,-31.893000,30.13
5.929087,-0.430000,0.146000,0.009000,-118.519000,93.893000,-75.023000,30.13
5.939221,0.262000,0.643000,-0.588000,-68.824000,167.435000,-87.542000,30.08
5.949086,0.890000,0.298000,-2.182000,-35.405000,194.992000,-75.527000,30.08
5.959174,0.578000,0.446000,-2.120000,-18.992000,171.847000,-92.794000,30.04
5.969085,0.676000,0.262000,-1.906000,3.191000,135.176000,-100.046000,30.13
5.979094,0.852000,-0.175000,-1.601000,33.176000,110.260000,-86.840000,30.04
5.988920,0.618000,-0.416000,-1.235000,47.588000,96.855000,-74.229000,30.18
5.999033,0.488000,-0.505000,-0.899000,46.000000,86.107000,-68.076000,30.18
6.009162,0.843000,-0.921000,-0.974000,22.702000,75.817000,-63.756000,30.13
6.019136,1.000000,-0.997000,-0.820000,2.901000,63.344000,-47.847000,30.13
6.029083,0.851000,-0.867000,-0.997000,-16.656000,39.924000,-36.687000,30.08
6.039046,0.673000,-0.695000,-0.903000,-35.038000,22.550000,-30.702000,30.08
6.049033,0.496000,-0.632000,-0.785000,-55.802000,5.786000,-28.183000,30.18
6.059171,0.345000,-0.568000,-0.756000,-75.435000,-0.107000,-28.947000,30.13
6.069113,0.236000,-0.469000,-0.631000,-92.244000,0.702000,-33.252000,30.13
6.079038,0.194000,-0.502000,-0.634000,-109.252000,23.771000,-38.718000,30.18
6.088996,0.441000,-0.569000,-1.173000,-107.359000,12.427000,-38.366000,30.18
6.098975,0.435000,-0.257000,-1.018000,-108.947000,47.740000,-38.840000,30.04
6.109076,0.370000,-0.261000,-1.031000,-94.885000,34.382000,-35.466000,30.13
6.119156,0.401000,-0.340000,-0.964000,-86.092000,29.710000,-33.176000,30.08
6.129050,0.432000,-0.341000,-0.980000,-78.000000,28.595000,-32.336000,30.08
6.139133,0.515000,-0.294000,-1.021000,-67.450000,20.443000,-29.405000,30.18
6.149220,0.439000,-0.316000,-0.885000,-60.641000,16.214000,-28.443000,30.13
6.159250,0.392000,-0.355000,-0.809000,-60.977000,11.756000,-30.550000,30.13
6.169123,0.371000,-0.292000,-0.861000,-61.695000,9.221000,-32.519000,30.08
6.179222,0.352000,-0.322000,-0.842000,-61.313000,11.878000,-34.183000,30.18
6.189026,0.389000,-0.336000,-0.855000,-61.069000,19.252000,-37.878000,30.13
6.199147,0.414000,-0.078000,-1.043000,-56.427000,12.565000,-38.382000,30.04
6.209187,0.433000,-0.279000,-0.895000,-56.779000,26.305000,-37.618000,30.13
6.219109,0.404000,-0.226000,-0.879000,-53.298000,8.824000,-39.847000,30.08
6.229269,0.549000,-0.239000,-0.932000,-48.656000,13.420000,-37.847000,29.99
6.239117,0.411000,-0.139000,-0.960000,-44.290000,14.382000,-36.611000,30.04
6.249113,0.390000,-0.138000,-0.915000,-42.382000,17.084000,-35.695000,30.13
6.259292,0.374000,-0.151000,-0.904000,-40.244000,22.397000,-35.634000,30.08
6.269263,0.388000,-0.137000,-0.920000,-39.618000,29.542000,-35.740000,30.08
6.279176,0.379000,-0.139000,-0.941000,-37.496000,37.206000,-37.405000,30.08
6.289139,0.409000,-0.149000,-0.957000,-34.794000,50.336000,-35.863000,30.13
6.299163,0.484000,-0.175000,-0.932000,-31.405000,58.977000,-38.214000,30.13
6.309187,0.558000,-0.223000,-1.033000,-18.580000,56.107000,-44.214000,30.08
6.319196,0.439000,-0.061000,-0.961000,-36.107000,79.405000,-44.336000,30.13
6.329052,0.466000,-0.254000,-0.906000,-37.023000,92.092000,-41.725000,30.13
6.339119,0.487000,-0.151000,-0.974000,-41.649000,100.702000,-40.107000,30.13
6.349231,0.608000,-0.199000,-0.854000,-52.290000,115.466000,-30.489000,29.99
6.359085,0.397000,-0.082000,-0.938000,-45.389000,123.084000,-38.489000,30.08
6.369231,0.458000,-0.027000,-0.879000,-53.786000,145.786000,-42.092000,30.04
6.379202,0.287000,0.030000,-0.872000,-63.588000,177.863000,-51.450000,30.04
6.389153,0.314000,0.049000,-0.834000,-67.847000,204.656000,-58.550000,30.13
6.399022,0.441000,-0.007000,-0.979000,-52.397000,219.466000,-57.649000,30.18
6.409235,0.364000,-0.029000,-1.014000,-38.870000,244.061000,-60.397000,30.08
6.419214,0.352000,-0.073000,-0.898000,-17.069000,249.878000,-73.298000,30.13
6.429040,0.601000,-0.122000,-0.908000,-6.107000,272.489000,-84.687000,30.04
6.439252,0.948000,-0.218000,-1.075000,13.573000,267.725000,-95.756000,30.13
6.449115,1.098000,-0.344000,-1.167000,11.939000,304.611000,-98.504000,30.08
6.459211,1.188000,-0.302000,-1.492000,-1.893000,339.634000,-86.412000,30.08
6.469132,1.456000,-0.238000,-1.842000,3.023000,357.313000,-106.641000,30.13
6.479238,1.714000,-0.327000,-2.248000,-21.573000,393.786000,-135.282000,30.04
6.489122,1.674000,-0.578000,-2.115000,-60.718000,372.763000,-162.305000,30.08
6.499150,1.927000,-0.774000,-2.767000,-79.542000,317.374000,-158.962000,30.08
6.509140,0.078000,-1.743000,-3.504000,-36.992000,187.221000,-108.275000,30.18
6.519130,0.837000,-4.000000,-2.883000,-34.672000,77.863000,4.901000,30.04
6.529182,0.266000,-3.341000,-3.582000,-151.511000,-120.443000,76.748000,30.13
6.539167,-1.460000,-2.230000,-1.292000,-199.527000,-117.603000,105.954000,30.08
6.549075,-1.101000,-1.213000,-1.680000,-176.824000,-164.718000,95.969000,30.08
6.559232,-1.067000,-0.617000,-1.932000,-106.519000,-140.855000,77.496000,30.13
6.569196,-0.890000,-0.586000,-2.128000,-32.779000,-154.458000,46.122000,30.13
6.579126,-0.763000,-0.730000,-1.610000,-0.992000,-164.382000,12.504000,30.08
6.589162,-0.593000,-0.674000,-1.289000,5.420000,-180.977000,-22.229000,30.08
6.599184,-0.276000,-0.532000,-1.392000,25.053000,-236.595000,-42.962000,30.08
6.609137,0.044000,-0.454000,-1.381000,61.405000,-253.130000,-53.435000,30.13
6.619086,0.280000,-0.492000,-1.248000,105.679000,-257.603000,-54.595000,30.04
6.629382,0.441000,-0.604000,-1.083000,138.214000,-256.168000,-48.290000,30.08
6.639108,0.528000,-0.631000,-0.958000,152.840000,-257.863000,-37.939000,30.18
6.649007,0.652000,-0.600000,-1.014000,157.344000,-253.588000,-26.046000,30.04
6.658845,0.727000,-0.573000,-1.112000,163.847000,-246.550000,-7.832000,30.13
6.668785,0.768000,-0.524000,-1.180000,177.282000,-241.710000,14.000000,30.08
6.678810,0.823000,-0.416000,-1.237000,194.214000,-231.847000,38.992000,30.08
6.688738,0.871000,-0.309000,-1.323000,212.397000,-220.229000,62.733000,30.08
6.698705,0.906000,-0.180000,-1.422000,224.366000,-210.672000,84.641000,30.22
6.710299,0.900000,-0.127000,-1.471000,224.305000,-205.145000,101.573000,30.13
6.718723,0.941000,-0.048000,-1.554000,214.977000,-199.557000,113.939000,30.08
6.728847,0.990000,0.048000,-1.685000,206.397000,-193.802000,122.840000,30.13
6.738763,1.189000,0.113000,-1.845000,202.443000,-194.427000,130.290000,30.04
6.748697,1.375000,0.198000,-1.880000,200.122000,-197.695000,140.031000,30.04
6.758720,1.577000,0.255000,-1.836000,193.450000,-206.122000,146.153000,30.08
6.768735,1.765000,0.383000,-1.782000,183.130000,-215.740000,151.115000,30.08
6.778800,1.903000,0.514000,-1.678000,177.557000,-217.176000,155.679000,30.04
6.788782,2.110000,0.571000,-1.501000,174.229000,-210.947000,161.573000,30.04
6.798753,2.315000,0.567000,-1.269000,166.977000,-199.267000,170.397000,30.13
6.808830,2.710000,0.501000,-0.720000,135.924000,-154.580000,178.321000,30.08
6.818892,2.587000,0.860000,-0.397000,121.176000,-156.183000,180.947000,30.08
6.828838,2.984000,0.975000,-0.293000,116.366000,-113.405000,174.580000,30.04
6.838900,2.876000,1.188000,0.307000,100.122000,-63.298000,167.008000,30.22
6.848837,2.955000,1.423000,0.369000,83.969000,-22.687000,154.962000,30.08
6.858842,3.070000,1.621000,0.409000,68.076000,23.206000,138.214000,29.99
6.868770,3.110000,1.707000,0.697000,24.626000,91.725000,111.557000,30.13
6.878797,3.020000,1.683000,1.155000,-61.695000,135.588000,67.511000,30.13
6.888817,3.359000,2.218000,0.854000,-134.611000,174.031000,-7.939000,30.13
6.898793,-0.114000,0.706000,-0.404000,-117.313000,139.924000,-39.344000,30.08
6.908783,1.293000,-0.390000,-3.650000,-114.153000,43.099000,-60.443000,30.18
6.918864,-0.891000,-0.767000,-1.937000,-126.443000,48.198000,-56.046000,30.04
6.929014,-1.107000,-0.356000,0.132000,-130.855000,50.824000,-90.321000,30.13
6.938873,-0.015000,0.473000,0.265000,-76.260000,156.916000,-123.282000,30.08
6.948858,1.592000,0.185000,-2.464000,-51.008000,215.725000,-115.695000,30.08
6.958880,1.113000,0.563000,-2.074000,-41.664000,175.710000,-121.496000,30.04
6.968909,0.827000,0.570000,-1.987000,-16.443000,138.351000,-134.107000,30.13
6.978950,1.375000,-0.684000,-2.083000,-37.237000,69.313000,-109.313000,30.04
6.988977,1.101000,-1.077000,-0.707000,-53.389000,57.695000,-74.336000,30.08
6.999021,0.927000,-1.127000,-0.930000,-63.145000,68.122000,-53.878000,30.08
7.009072,0.809000,-0.319000,-1.316000,-75.649000,42.382000,-41.786000,30.04
7.019132,0.776000,-0.283000,-1.238000,-75.115000,39.389000,-35.573000,30.13
7.029002,0.687000,-0.650000,-0.918000,-62.122000,33.710000,-27.527000,30.08
7.039064,0.583000,-0.575000,-1.045000,-58.656000,28.565000,-26.321000,30.04
7.049007,0.472000,-0.359000,-1.065000,-51.282000,18.473000,-23.160000,30.13
7.059010,0.371000,-0.392000,-0.896000,-47.145000,19.557000,-22.153000,30.22
7.069004,0.330000,-0.355000,-0.894000,-48.015000,21.145000,-21.863000,30.08
7.079134,0.327000,-0.231000,-0.931000,-46.885000,26.244000,-21.573000,30.08
7.089043,0.379000,-0.158000,-0.990000,-41.771000,33.557000,-19.634000,30.04
7.099051,0.430000,-0.168000,-1.010000,-33.160000,40.046000,-15.420000,30.13
7.108930,0.478000,-0.220000,-1.022000,-23.237000,37.908000,-10.702000,30.04
7.118990,0.389000,-0.278000,-0.861000,-19.588000,37.573000,-8.977000,30.08
7.129027,0.404000,-0.346000,-0.829000,-19.725000,28.214000,-10.000000,30.08
7.138927,0.393000,-0.410000,-0.806000,-23.542000,21.603000,-13.908000,30.13
7.148983,0.413000,-0.397000,-0.805000,-32.626000,15.267000,-18.733000,30.13
7.159025,0.435000,-0.385000,-0.815000,-40.855000,14.870000,-23.313000,30.08
7.169011,0.431000,-0.358000,-0.899000,-42.641000,5.496000,-24.855000,29.99
7.179005,0.409000,-0.315000,-0.879000,-43.725000,-2.092000,-26.550000,29.99
7.189103,0.403000,-0.184000,-0.824000,-40.046000,8.015000,-28.733000,30.04
7.199055,0.389000,-0.166000,-0.906000,-36.458000,10.382000,-27.863000,30.04
7.209090,0.401000,-0.175000,-0.898000,-33.557000,12.962000,-27.740000,29.99
7.219145,0.391000,-0.172000,-0.908000,-32.595000,19.099000,-29.130000,30.08
7.229238,0.407000,-0.194000,-0.900000,-31.069000,21.786000,-29.466000,30.13
7.239251,0.403000,-0.131000,-0.928000,-30.092000,28.962000,-28.809000,30.13
7.249195,0.437000,-0.175000,-0.878000,-26.168000,31.542000,-27.206000,30.08
7.259235,0.445000,-0.182000,-0.891000,-23.405000,34.794000,-26.977000,30.08
7.269167,0.209000,0.237000,-1.080000,-14.336000,30.534000,-43.969000,30.13
7.279619,0.438000,-0.261000,-0.853000,-21.389000,46.870000,-33.863000,30.04
7.289252,0.450000,-0.258000,-0.868000,-20.534000,56.611000,-30.580000,29.94
7.299219,0.418000,-0.160000,-0.922000,-22.992000,67.145000,-29.145000,29.99
7.309348,0.450000,-0.134000,-0.898000,-23.115000,89.313000,-25.588000,29.99
7.319249,0.419000,-0.171000,-0.911000,-24.031000,106.855000,-20.382000,30.13
7.329200,0.423000,-0.169000,-0.910000,-27.359000,120.076000,-21.542000,30.13
7.339279,0.426000,-0.175000,-0.869000,-31.679000,139.771000,-24.885000,30.08
7.349140,0.374000,-0.129000,-0.867000,-36.031000,164.153000,-33.176000,30.08
7.359225,0.385000,-0.090000,-0.832000,-36.962000,189.359000,-40.290000,29.99
7.369240,0.449000,-0.159000,-1.026000,-16.687000,185.267000,-46.962000,30.04
7.379213,0.428000,-0.129000,-0.839000,-27.878000,225.847000,-50.992000,30.04
7.389194,0.417000,-0.174000,-0.805000,-35.756000,247.817000,-64.626000,30.08
7.399200,0.596000,-0.200000,-0.857000,-45.496000,272.977000,-82.885000,30.13
7.409163,0.390000,-0.300000,-0.902000,-62.305000,273.237000,-105.008000,30.04
7.419200,0.801000,-0.449000,-1.154000,-72.107000,278.092000,-130.718000,30.04
7.429126,1.284000,-0.629000,-1.292000,-39.817000,306.153000,-114.992000,30.08
7.439245,1.258000,-0.614000,-1.854000,-24.672000,335.313000,-121.847000,29.99
7.449093,1.661000,-0.492000,-1.887000,-29.679000,401.023000,-155.771000,30.04
7.459211,2.029000,-0.486000,-2.428000,-42.107000,445.756000,-195.344000,30.13
7.469247,2.113000,-0.794000,-2.323000,-69.466000,464.473000,-228.000000,30.04
7.479161,2.072000,-0.843000,-2.962000,-111.206000,404.656000,-207.023000,30.08
7.489173,0.560000,-1.710000,-3.332000,-56.427000,188.366000,-140.351000,30.08
7.499053,-0.077000,-4.000000,-3.210000,1.939000,92.595000,2.550000,30.13
7.509159,0.892000,-3.308000,-4.000000,-79.618000,-133.298000,85.130000,30.13
7.519222,-1.309000,-2.145000,-1.285000,-137.008000,-134.595000,106.412000,30.08
7.529097,-0.920000,-1.172000,-1.484000,-111.038000,-150.458000,108.489000,30.08
7.538993,-0.848000,-0.610000,-1.854000,-57.252000,-157.649000,100.748000,30.04
7.549168,-0.741000,-0.647000,-1.811000,-21.847000,-169.985000,75.710000,30.22
7.559191,-0.540000,-0.734000,-1.627000,-15.756000,-197.573000,44.504000,30.04
7.569117,-0.295000,-0.590000,-1.457000,-26.519000,-243.573000,9.603000,30.08
7.579057,-0.108000,-0.326000,-1.358000,-20.779000,-303.191000,-22.397000,30.08
7.588930,0.109000,-0.174000,-1.260000,13.618000,-331.053000,-46.351000,30.04
7.598864,0.342000,-0.179000,-1.144000,59.832000,-328.046000,-58.244000,30.13
7.608862,0.540000,-0.402000,-0.945000,96.229000,-318.168000,-59.191000,30.08
7.618881,0.614000,-0.634000,-0.802000,117.237000,-320.809000,-45.038000,30.18
7.629053,0.780000,-0.792000,-0.703000,125.588000,-307.542000,-19.985000,30.13
7.638958,0.844000,-0.861000,-0.669000,126.534000,-276.962000,17.511000,30.13
7.648914,0.867000,-0.798000,-0.835000,136.031000,-247.176000,53.206000,29.94
7.658947,0.984000,-0.712000,-1.054000,148.672000,-225.023000,88.565000,30.08
7.668956,1.076000,-0.594000,-1.187000,158.702000,-213.847000,114.855000,30.08
7.679139,1.177000,-0.558000,-1.294000,159.893000,-209.466000,131.069000,30.04
7.689090,1.264000,-0.578000,-1.365000,154.458000,-218.702000,144.641000,30.13
7.699058,1.424000,-0.513000,-1.351000,149.466000,-218.427000,164.656000,30.08
7.709071,1.509000,-0.301000,-1.375000,153.069000,-210.458000,183.450000,30.08
7.719142,1.596000,-0.133000,-1.446000,157.695000,-195.298000,195.466000,30.08
7.729274,1.773000,-0.014000,-1.582000,157.435000,-184.611000,203.710000,30.13
7.739173,1.985000,0.080000,-1.681000,149.466000,-184.901000,203.740000,30.13
7.749134,2.181000,0.243000,-1.672000,136.916000,-197.359000,195.374000,29.89
7.759279,2.312000,0.460000,-1.503000,127.939000,-210.351000,177.130000,30.08
7.769389,2.471000,0.645000,-1.205000,132.916000,-211.435000,152.977000,30.08
7.779400,2.584000,0.792000,-0.921000,150.687000,-197.176000,130.137000,30.04
7.789258,2.737000,0.900000,-0.677000,177.832000,-169.679000,114.580000,30.04
7.799169,2.869000,1.047000,-0.389000,203.649000,-138.107000,106.901000,30.08
7.809221,2.956000,1.195000,-0.120000,214.656000,-105.924000,101.053000,30.13
7.819295,2.899000,1.431000,0.253000,206.198000,-72.107000,89.679000,30.04
7.829206,2.927000,1.522000,0.438000,178.885000,-39.466000,70.260000,30.13
7.839334,2.981000,1.580000,0.585000,133.160000,-4.519000,46.076000,30.08
7.849175,2.934000,1.425000,0.578000,69.878000,12.000000,25.176000,29.99
7.859295,1.856000,-0.253000,1.523000,-40.214000,101.405000,35.145000,30.13
7.869192,2.967000,1.064000,1.390000,-232.794000,64.931000,-6.382000,30.13
7.879229,-0.026000,0.873000,-1.554000,-149.450000,116.336000,-10.931000,30.04
7.889215,0.067000,-0.521000,-3.160000,-118.183000,13.038000,1.527000,30.08
7.899247,-1.283000,-0.199000,-1.310000,-113.695000,47.542000,-17.847000,30.08
7.909248,-0.974000,0.619000,-0.399000,-93.542000,47.511000,-79.420000,30.04
7.919091,0.447000,0.921000,-0.869000,-30.580000,185.145000,-115.176000,30.13
7.929245,1.088000,0.190000,-2.043000,-14.443000,216.046000,-114.290000,30.08
7.939260,0.953000,-0.055000,-1.851000,10.595000,174.534000,-97.802000,30.08
7.949219,0.699000,-0.111000,-1.423000,30.534000,169.023000,-96.168000,30.04
7.959220,0.958000,-0.374000,-1.578000,43.481000,145.695000,-87.817000,30.04
7.969131,1.128000,-0.865000,-1.247000,22.855000,99.649000,-72.504000,30.18
7.979215,0.849000,-0.839000,-0.899000,8.382000,76.183000,-55.893000,30.08
7.989108,0.926000,-0.899000,-0.926000,-15.130000,63.588000,-40.763000,29.99
7.999166,0.699000,-0.621000,-0.895000,-23.573000,42.290000,-33.588000,30.04
8.009223,0.662000,-0.674000,-0.887000,-28.519000,34.748000,-28.794000,30.13
8.019372,0.567000,-0.708000,-0.775000,-34.885000,26.244000,-25.939000,30.08
8.029233,0.445000,-0.557000,-0.843000,-43.863000,11.725000,-24.992000,30.08
8.039213,0.376000,-0.422000,-0.869000,-56.168000,1.634000,-26.000000,30.22
8.049239,0.302000,-0.380000,-0.737000,-69.878000,-4.000000,-27.405000,30.04
8.059174,0.232000,-0.330000,-0.686000,-87.847000,-7.710000,-30.061000,30.08
8.069054,0.274000,-0.353000,-0.833000,-107.450000,5.527000,-34.626000,30.08
8.079177,0.446000,-0.425000,-1.061000,-106.718000,20.351000,-36.092000,30.08
8.089348,0.437000,-0.375000,-1.007000,-94.061000,24.870000,-34.809000,30.04
8.099191,0.436000,-0.412000,-0.908000,-84.947000,23.191000,-35.985000,30.13
8.109200,0.476000,-0.447000,-0.883000,-82.992000,18.229000,-36.382000,30.08
8.119119,0.514000,-0.448000,-1.017000,-79.496000,22.260000,-36.092000,30.08
8.129089,0.409000,-0.295000,-0.794000,-68.168000,13.603000,-35.695000,30.08
8.139231,0.488000,-0.292000,-0.917000,-63.069000,21.389000,-34.992000,30.04
8.149208,0.440000,-0.257000,-0.911000,-58.321000,24.550000,-34.901000,30.13
8.159116,0.405000,-0.166000,-0.903000,-51.221000,16.840000,-34.977000,30.08
8.169170,0.452000,-0.189000,-0.949000,-47.618000,12.473000,-34.611000,30.04
8.179063,0.439000,-0.245000,-0.929000,-46.641000,11.939000,-34.595000,30.04
8.189130,0.442000,-0.190000,-0.916000,-45.359000,13.466000,-33.893000,30.04
8.199093,0.444000,-0.199000,-0.882000,-40.687000,17.389000,-30.947000,30.08
8.209137,0.446000,-0.141000,-0.927000,-36.275000,25.160000,-27.679000,30.08
8.219223,0.464000,-0.166000,-0.899000,-32.092000,27.206000,-25.679000,30.04
8.229140,0.446000,-0.179000,-0.873000,-30.015000,27.145000,-24.550000,30.04
8.239126,0.465000,-0.183000,-0.884000,-28.305000,27.115000,-24.122000,30.13
8.255885,0.442000,-0.368000,-0.802000,-13.634000,27.191000,-24.824000,30.08
8.259582,0.478000,-0.033000,-0.966000,-17.695000,25.298000,-24.977000,30.08
8.269809,0.470000,-0.241000,-0.859000,-18.107000,32.718000,-23.618000,30.13
8.278697,0.435000,-0.158000,-0.924000,-20.382000,33.115000,-24.244000,30.13
8.288739,0.484000,-0.207000,-0.880000,-22.779000,52.733000,-23.405000,30.22
8.298701,0.443000,-0.185000,-0.926000,-23.084000,61.847000,-22.214000,30.08
8.308683,0.429000,-0.221000,-0.896000,-25.160000,77.267000,-22.061000,30.08
8.318756,0.465000,-0.221000,-0.889000,-28.305000,89.405000,-22.397000,30.13
8.328818,0.482000,-0.216000,-0.865000,-34.443000,107.313000,-20.061000,30.04
8.338776,0.464000,-0.166000,-0.883000,-37.802000,123.832000,-22.015000,30.08
8.348800,0.468000,-0.131000,-0.845000,-43.649000,143.511000,-24.733000,30.18
8.358910,0.406000,-0.070000,-0.813000,-45.313000,160.885000,-31.664000,30.13
8.368888,0.435000,-0.080000,-0.802000,-44.397000,171.603000,-42.626000,29.94
8.379006,0.424000,-0.127000,-0.890000,-41.954000,187.863000,-45.740000,30.08
8.388863,0.440000,-0.167000,-0.829000,-34.305000,208.183000,-54.824000,30.08
8.398902,0.487000,-0.121000,-0.777000,-40.305000,237.313000,-64.702000,30.08
8.408916,0.519000,-0.054000,-0.874000,-37.053000,248.290000,-80.000000,30.04
8.418984,0.556000,-0.282000,-0.849000,-59.221000,256.672000,-94.046000,30.13
8.428936,0.778000,-0.228000,-1.071000,-67.679000,282.901000,-108.336000,30.08
8.438993,0.937000,-0.234000,-1.103000,-51.511000,308.336000,-109.115000,30.08
8.449081,1.320000,-0.313000,-1.421000,-6.534000,291.069000,-66.412000,30.04
8.459093,1.476000,-0.330000,-1.838000,27.603000,339.847000,-84.351000,30.13
8.469179,1.801000,-0.391000,-2.334000,27.511000,389.756000,-107.359000,30.13
8.479100,1.519000,-0.112000,-1.632000,-16.229000,423.817000,-145.405000,30.08
8.489108,1.615000,-0.273000,-1.870000,-41.191000,382.244000,-153.206000,30.18
8.499114,1.334000,-0.400000,-2.328000,-51.954000,298.015000,-129.710000,30.13
8.509063,0.586000,-1.077000,-2.938000,6.870000,197.985000,-88.962000,30.13
8.519044,-1.621000,-4.000000,-3.578000,62.901000,-9.649000,0.641000,29.99
8.529255,1.460000,-3.145000,-4.000000,-44.550000,-168.977000,51.160000,30.08
8.539063,-1.221000,-2.129000,-0.969000,-139.679000,-215.145000,61.527000,30.04
8.549116,-0.843000,-1.458000,-0.893000,-150.763000,-241.634000,69.420000,30.04
8.559250,-0.404000,-1.060000,-1.326000,-136.779000,-216.244000,68.031000,30.04
8.569077,-0.387000,-0.996000,-1.164000,-98.595000,-157.298000,63.511000,29.99
8.579128,-0.281000,-0.932000,-1.401000,-57.603000,-190.565000,58.198000,30.04
8.589285,-0.111000,-0.852000,-1.216000,-47.786000,-230.901000,43.832000,30.13
8.599239,-0.033000,-0.655000,-0.995000,-38.427000,-265.969000,23.924000,30.04
8.609227,0.088000,-0.449000,-0.943000,-12.809000,-283.588000,5.954000,30.08
8.619283,0.312000,-0.435000,-1.038000,27.115000,-274.656000,-1.939000,30.08
8.629122,0.513000,-0.585000,-1.019000,60.885000,-265.115000,-1.435000,30.04
8.639226,0.681000,-0.763000,-0.993000,79.542000,-269.985000,4.885000,30.13
8.649093,0.764000,-0.815000,-0.980000,83.618000,-275.557000,14.366000,30.04
8.659243,0.873000,-0.750000,-1.036000,84.305000,-271.847000,24.260000,30.08
8.669154,0.929000,-0.695000,-1.085000,92.107000,-268.122000,33.954000,30.08
8.679134,1.051000,-0.613000,-1.162000,106.076000,-261.115000,45.053000,30.04
8.689128,1.373000,-0.431000,-1.222000,126.153000,-245.466000,59.374000,30.04
8.699233,0.976000,-0.616000,-1.032000,135.802000,-251.618000,67.374000,30.08
8.709136,1.245000,-0.527000,-1.093000,147.649000,-242.260000,82.702000,30.08
8.719193,1.281000,-0.500000,-1.146000,151.603000,-233.313000,94.977000,30.04
8.729269,1.220000,-0.511000,-1.148000,154.580000,-222.580000,108.855000,30.13
8.739146,1.285000,-0.434000,-1.196000,157.420000,-197.435000,119.817000,30.13
8.749129,1.381000,-0.375000,-1.308000,160.977000,-170.244000,127.939000,29.99
8.759255,1.564000,-0.292000,-1.449000,165.435000,-146.260000,133.053000,30.18
8.769169,1.733000,-0.207000,-1.526000,175.847000,-136.718000,137.481000,30.04
8.779360,1.883000,-0.025000,-1.574000,190.947000,-133.847000,143.176000,30.04
8.789129,2.073000,0.087000,-1.424000,199.389000,-117.450000,149.985000,29.99
8.799119,2.079000,0.420000,-1.231000,185.206000,-123.893000,146.947000,30.08
8.809182,2.077000,0.881000,-1.584000,205.756000,-142.855000,140.733000,30.08
8.819255,2.148000,1.030000,-1.295000,227.771000,-130.916000,131.084000,30.04
8.829228,2.339000,1.062000,-0.735000,209.878000,-132.305000,114.779000,30.04
8.839126,2.427000,1.232000,-0.337000,166.198000,-125.359000,84.046000,30.08
8.849125,2.544000,1.507000,-0.149000,114.550000,-99.710000,43.878000,30.08
8.859211,2.465000,1.931000,0.035000,80.168000,-85.405000,7.008000,30.04
8.869287,2.438000,2.015000,0.196000,54.107000,-67.191000,-23.237000,30.13
8.879064,2.413000,1.876000,0.297000,21.328000,-36.763000,-45.176000,29.99
8.888928,2.330000,1.614000,0.213000,-19.832000,-7.206000,-62.275000,30.08
8.898965,2.261000,1.343000,-0.211000,-50.702000,23.053000,-74.000000,30.04
8.908888,2.129000,1.096000,-0.460000,-72.672000,35.786000,-76.534000,30.13
8.919047,1.867000,0.769000,-0.534000,-93.389000,44.947000,-74.443000,30.04
8.928830,-1.848000,-0.994000,-1.216000,-118.672000,22.321000,-29.725000,30.08
8.938707,-0.434000,-1.429000,-2.624000,-74.168000,-59.740000,-31.756000,30.13
8.948669,-0.840000,-1.987000,-2.299000,-90.366000,18.840000,4.031000,30.13
8.958679,-0.432000,-1.645000,0.133000,-127.710000,34.229000,-2.061000,30.04
8.968718,0.294000,-0.127000,-0.063000,-103.710000,58.519000,-32.412000,30.08
8.978813,1.103000,0.006000,-0.934000,-50.229000,143.420000,6.595000,29.99
8.988705,0.710000,0.108000,-0.908000,-39.389000,101.695000,20.000000,30.04
8.998668,0.071000,0.629000,-1.632000,-16.672000,92.626000,-2.214000,30.04
9.008672,0.016000,0.470000,-1.785000,-0.061000,55.771000,-28.489000,30.08
9.018679,0.083000,0.286000,-1.451000,15.771000,40.305000,-42.779000,30.08
9.029239,0.115000,-0.067000,-1.107000,30.794000,66.855000,-44.824000,29.99
9.038853,0.057000,-0.116000,-0.960000,48.519000,91.435000,-44.916000,30.04
9.049065,0.128000,0.015000,-0.987000,62.718000,113.053000,-49.939000,30.04
9.059252,0.289000,-0.185000,-0.905000,74.519000,112.565000,-54.244000,30.08
9.069291,0.602000,-0.768000,-0.786000,69.053000,100.107000,-49.939000,30.08
9.079358,0.849000,-1.188000,-0.732000,48.076000,86.977000,-43.634000,30.04
9.089316,0.984000,-1.262000,-0.795000,20.992000,71.145000,-28.107000,30.04
9.099264,0.696000,-0.802000,-0.913000,3.725000,49.496000,-22.809000,30.18
9.109288,0.579000,-0.606000,-1.000000,-11.344000,27.710000,-23.832000,30.08
9.119308,0.578000,-0.697000,-0.873000,-24.947000,7.832000,-20.885000,30.04
9.129222,0.429000,-0.632000,-0.824000,-35.069000,1.664000,-17.878000,30.04
9.139395,0.338000,-0.416000,-0.852000,-37.511000,-1.679000,-19.603000,30.04
9.149309,0.292000,-0.354000,-0.883000,-34.061000,3.557000,-20.366000,29.99
9.159244,0.277000,-0.328000,-0.824000,-31.008000,9.954000,-21.282000,29.99
9.169354,0.275000,-0.328000,-0.856000,-27.374000,14.687000,-21.038000,30.04
9.179133,0.248000,-0.273000,-0.865000,-23.450000,18.733000,-22.076000,30.04
9.189164,0.265000,-0.292000,-0.824000,-21.939000,24.000000,-24.427000,30.08
9.199293,0.274000,-0.371000,-0.747000,-24.733000,24.229000,-27.267000,30.08
9.209392,0.428000,-0.599000,-0.810000,-27.786000,30.565000,-27.756000,29.99
9.219343,0.510000,-0.574000,-0.777000,-32.687000,30.305000,-25.435000,30.04
9.229228,0.460000,-0.500000,-0.741000,-38.260000,24.412000,-23.954000,30.04
9.239429,0.368000,-0.456000,-0.710000,-48.855000,15.313000,-24.443000,30.08
9.249251,0.339000,-0.427000,-0.675000,-65.893000,11.374000,-27.221000,30.04
9.259364,0.331000,-0.420000,-0.654000,-86.733000,10.198000,-31.023000,30.13
9.269388,0.308000,-0.494000,-0.605000,-103.328000,13.115000,-33.313000,30.04
9.279337,0.358000,-0.579000,-0.740000,-116.458000,25.496000,-36.885000,30.08
9.289292,0.426000,-0.291000,-1.012000,-118.382000,27.954000,-35.924000,30.08
9.299231,0.396000,-0.231000,-1.007000,-107.328000,34.290000,-36.779000,30.13
9.309278,0.447000,-0.074000,-1.003000,-97.160000,35.328000,-33.863000,30.04
9.319209,0.404000,-0.398000,-0.909000,-84.580000,34.733000,-36.947000,30.04
9.329395,0.466000,-0.290000,-1.112000,-76.244000,40.260000,-41.130000,30.08
9.339289,0.466000,-0.247000,-1.039000,-67.511000,30.122000,-41.588000,30.08
9.349262,0.450000,-0.263000,-0.990000,-64.076000,43.695000,-46.870000,30.13
9.359276,0.459000,-0.333000,-0.893000,-64.198000,55.420000,-48.947000,30.04
9.369352,0.466000,-0.300000,-0.997000,-56.779000,44.916000,-49.084000,30.08
9.379328,0.500000,-0.391000,-0.864000,-60.458000,50.595000,-51.954000,29.99
9.389360,0.558000,-0.519000,-0.660000,-53.084000,68.015000,-54.595000,30.04
9.399198,0.498000,-0.276000,-0.932000,-52.137000,78.260000,-61.038000,30.13
9.409261,0.426000,-0.206000,-0.961000,-65.847000,102.550000,-54.779000,29.99
9.419308,0.589000,0.037000,-0.972000,-53.634000,139.802000,-47.802000,30.08
9.428924,0.459000,-0.014000,-0.883000,-59.389000,160.321000,-39.588000,30.08
9.439276,0.321000,0.036000,-0.876000,-53.969000,187.847000,-43.038000,30.04
9.449176,0.339000,0.064000,-0.850000,-53.282000,214.794000,-46.290000,30.13
9.459311,0.367000,-0.003000,-0.961000,-42.046000,230.840000,-48.809000,30.08
9.469254,0.377000,-0.049000,-0.817000,-35.084000,260.412000,-58.550000,29.99
9.479086,0.396000,-0.083000,-0.878000,-38.611000,286.962000,-76.321000,30.04
9.489448,0.652000,-0.349000,-1.119000,-48.336000,306.763000,-96.458000,30.13
9.499314,0.604000,-0.373000,-1.120000,-47.542000,305.069000,-114.901000,29.99
9.509173,1.061000,-0.406000,-1.161000,-21.496000,317.023000,-127.786000,29.99
9.518916,1.462000,-0.492000,-1.530000,-6.870000,356.916000,-110.595000,30.04
9.528973,1.666000,-0.392000,-1.966000,-3.863000,371.389000,-145.832000,30.04
9.538928,1.989000,-0.430000,-2.200000,-30.015000,435.038000,-181.466000,30.04
9.548802,1.650000,-0.400000,-2.081000,-47.160000,378.901000,-198.534000,29.99
9.558753,1.708000,-0.708000,-2.829000,-50.901000,289.267000,-172.489000,29.94
9.568726,-0.199000,-1.322000,-2.912000,8.504000,117.985000,-130.382000,30.04
9.578831,0.602000,-2.533000,-3.948000,24.321000,-25.176000,-88.611000,30.04
9.588815,0.358000,-2.464000,-3.347000,-104.366000,-217.466000,-63.954000,29.99
9.598711,-1.043000,-2.026000,-0.709000,-144.412000,-240.855000,-45.313000,30.08
9.608717,-0.574000,-1.466000,-1.127000,-144.168000,-276.244000,-29.847000,30.04
9.618702,-0.406000,-1.239000,-1.474000,-84.901000,-329.786000,-4.962000,30.04
9.628821,-0.398000,-1.300000,-1.191000,-53.664000,-220.779000,4.183000,30.04
9.638786,-0.325000,-1.364000,-0.878000,-24.015000,-214.290000,14.687000,30.08
9.648655,-0.283000,-1.187000,-0.479000,-11.710000,-231.664000,17.679000,30.08
9.658663,-0.207000,-0.999000,-0.456000,4.046000,-234.473000,22.031000,30.04
9.670807,0.057000,-0.964000,-0.630000,36.137000,-206.260000,35.908000,30.04
9.686489,0.368000,-1.061000,-0.862000,69.649000,-184.198000,56.458000,30.08
9.688702,0.581000,-1.104000,-0.988000,92.840000,-186.519000,82.336000,30.08
9.698725,0.729000,-1.078000,-1.086000,104.947000,-195.985000,108.565000,30.08
9.708724,0.857000,-0.930000,-1.188000,108.412000,-212.779000,133.221000,30.13
9.718726,0.909000,-0.737000,-1.292000,103.863000,-228.366000,148.718000,30.04
9.728872,0.944000,-0.526000,-1.361000,111.237000,-239.298000,151.847000,29.99
9.738700,1.019000,-0.321000,-1.452000,126.992000,-257.725000,145.679000,30.08
9.749216,1.086000,-0.129000,-1.570000,143.924000,-259.267000,135.634000,30.04
9.758978,1.042000,0.079000,-1.545000,171.298000,-271.023000,121.344000,30.04
9.771186,1.148000,0.214000,-1.594000,198.137000,-265.313000,106.107000,30.13
9.779563,1.224000,0.332000,-1.486000,224.351000,-257.038000,95.863000,30.08
9.789682,1.313000,0.368000,-1.429000,238.611000,-221.908000,86.519000,29.99
9.799635,1.548000,0.288000,-1.551000,236.382000,-192.458000,83.847000,30.04
9.809651,1.877000,0.223000,-1.630000,220.443000,-175.740000,87.481000,30.04
9.818992,2.201000,0.335000,-1.543000,203.664000,-171.847000,95.328000,30.08
9.829241,2.400000,0.531000,-1.342000,191.588000,-164.885000,101.618000,30.08
9.838972,2.523000,0.709000,-1.082000,178.626000,-143.710000,107.679000,30.08
9.849368,2.584000,0.893000,-0.878000,171.710000,-129.817000,117.130000,30.04
9.858845,2.636000,1.060000,-0.642000,163.389000,-105.771000,133.847000,30.13
9.868996,2.760000,1.259000,-0.294000,152.870000,-79.206000,153.069000,30.18
9.879305,2.824000,1.447000,0.069000,139.786000,-45.328000,164.107000,29.99
9.889387,2.952000,1.669000,0.101000,126.061000,-11.939000,158.672000,30.13
9.899119,2.919000,1.963000,0.189000,112.626000,2.351000,137.573000,30.04
9.915034,2.591000,2.115000,0.422000,88.687000,17.863000,97.954000,30.04
9.918834,2.261000,1.969000,0.418000,28.107000,32.168000,40.885000,30.08
9.932437,2.902000,1.743000,0.252000,-174.397000,95.771000,-31.176000,30.08
9.938766,-0.744000,0.859000,-1.402000,-107.771000,75.710000,-72.565000,30.04
9.948732,0.766000,-0.733000,-3.093000,-66.351000,-28.901000,-58.122000,30.04
9.958678,-0.830000,-1.451000,-1.142000,-81.115000,-37.969000,-32.412000,29.99
9.968704,-0.543000,-1.177000,0.450000,-98.779000,-20.870000,-57.420000,30.04
9.978788,0.463000,-0.943000,0.323000,-87.969000,114.718000,-54.702000,30.13
9.988738,0.740000,-0.241000,-0.675000,-54.595000,144.977000,-30.473000,30.04
9.998743,0.226000,0.475000,-1.566000,-52.550000,166.321000,-38.595000,30.18
10.008974,0.297000,0.955000,-2.293000,-34.260000,145.817000,-70.443000,29.99
